t_DVL,WX,WY,WZ,BX,BY,BZ,t_imu,AccX,AccY,AccZ,GyrX,GyrY,GyrZ,MagX,MagY,MagZ,t_filter,PN,PE,Sample period (seconds),Time Since Start of Day (seconds),No of GPS Satellites Available,Latitude (degrees),Longitude (degrees),Velocity (km/hr),Indicated Vehicle Speed (km/hr),Wheel Speed Front Left (rad/sec),Wheel Speed Front Right (rad/sec),Wheel Speed Rear Left (rad/sec),Wheel Speed Rear Right (rad/sec),Steering Angle (degrees),Yaw Rate (deg/sec),Indicated Longitudinal Acceleration (g),Indicated Lateral Acceleration (g),Heading (degrees)
2017/08/23/12:21:47.024299,-0.171,-0.126,0.166,-0.341,-0.07,0.108,2017/08/23/12:21:47.020658,-0.49425516,-9.14764312,0.21182364,0.023038346,0.0143117,0.273318561,0.1927,0.3253,-0.2795,2017/08/23/12:21:47.026108,21.89327815,36.77967743,0.21079137018988406,0.21079137018988406,10,0.00019666976419331657,0.0003303959524793388,0.7646674571341453,0.7646674571341453,0.21240762698170704,0.21240762698170704,0.21240762698170704,0.21240762698170704,0.0,15.660000007888941,-0.05038278899082569,0.02159262385321101,128.0043488263653
2017/08/23/12:21:47.265068,-0.406,-0.144,0.302,-0.476,-0.285,0.009,2017/08/23/12:21:47.264421,-0.6276256,-8.9828914,0.10198916,0.009424778,0.033161256,0.216769893,0.2136,0.3161,-0.2789,2017/08/23/12:21:47.266908,21.79202024,36.90926137,0.243763,0.4545543701898841,10,0.0001957601530722242,0.0003315600194933525,1.5508104719790876,1.5508104719790876,0.43078068666085767,0.43078068666085767,0.43078068666085767,0.43078068666085767,0.0,12.419999994402447,-0.06397814475025485,0.01039644852191641,128.0043488263653
2017/08/23/12:21:47.513660,-0.229,-0.199,0.05,-0.441,-0.413,-0.203,2017/08/23/12:21:47.516348,0.0392266,-8.93581948,0.08629852,-0.069115038,-0.03700098,0.192335284,0.2293,0.3091,-0.2774,2017/08/23/12:21:47.516128,21.74007156,37.02350202,0.251927,0.7064813701898841,10,0.0001952934922745239,0.0003325862560186849,1.0921832813223247,1.0921832813223247,0.30338424481175685,0.30338424481175685,0.30338424481175685,0.30338424481175685,0.0,11.02000002465007,0.003998634046890928,0.00879699490316004,114.4527294320205
2017/08/23/12:21:47.762960,-0.237,-0.243,-0.202,-0.215,-0.316,-0.32,2017/08/23/12:21:47.760105,0.18044236,-9.55559976,0.14121576,-0.228289066,-0.031415927,0.166155345,0.242,0.3113,-0.2679,2017/08/23/12:21:47.764158,21.72409622,37.10826991,0.243757,0.9502383701898841,10,0.00019514998401006108,0.00033334773544735894,1.221975973577222,1.221975973577222,0.33943777043811724,0.33943777043811724,0.33943777043811724,0.33943777043811724,0.0,9.520000012040127,0.018393716615698264,0.014395082568807338,100.67277111031792
2017/08/23/12:21:48.042363,0.109,0.099,-0.25,-0.02,-0.031,-0.309,2017/08/23/12:21:48.044949,-0.57270836,-9.98709236,0.0392266,-0.156730567,0.065275314,0.071558499,0.2512,0.3206,-0.2478,2017/08/23/12:21:48.043891,21.72292015,37.12781988,0.284844,1.235082370189884,10,0.00019513941924182538,0.0003335233550125763,0.5300931238942834,0.5300931238942834,0.14724808997063427,0.14724808997063427,0.14724808997063427,0.14724808997063427,0.0,4.099999980991122,-0.05838005708460754,0.003998634046890928,93.44260061638224
2017/08/23/12:21:48.297413,-0.012,0.217,-0.287,-0.016,0.182,-0.343,2017/08/23/12:21:48.296538,-1.31801376,-10.69317116,-0.25105024,0.045378561,0.220958683,-0.016057029,0.2641,0.3222,-0.235,2017/08/23/12:21:48.299291,21.68346657,37.11347703,0.251589,1.4866713701898842,10,0.00019478500332375135,0.00033339451158821416,0.7823935582556901,0.7823935582556901,0.21733154395991391,0.21733154395991391,0.21733154395991391,0.21733154395991391,0.0,-0.9199999932191688,-0.13435410397553516,-0.025591257900101933,199.9780959477138
2017/08/23/12:21:48.558511,-0.109,0.246,-0.12,-0.119,0.349,-0.239,2017/08/23/12:21:48.556512,-1.4906108,-10.7088618,-0.42364728,0.152541777,0.11274827,-0.199665666,0.271,0.3248,-0.2392,2017/08/23/12:21:48.559984,21.63709016,37.06106371,0.259974,1.746645370189884,10,0.00019436839885016169,0.00033292367687747036,0.9686408622394577,0.9686408622394577,0.26906690617762713,0.26906690617762713,0.26906690617762713,0.26906690617762713,0.0,-11.439999975468737,-0.15194809378185525,-0.04318524770642202,228.49692096637094
2017/08/23/12:21:48.816817,-0.039,0.533,0.02,-0.044,0.441,-0.027,2017/08/23/12:21:48.816682,-0.61978028,-10.13615344,-0.42364728,0.070162236,-0.025830873,-0.346273324,0.2542,0.3319,-0.2519,2017/08/23/12:21:48.818336,21.59814319,37.08089009,0.26017,2.006815370189884,10,0.00019401853386633128,0.0003331017794646065,1.923929728446442,1.923929728446442,0.5344249245684561,0.5344249245684561,0.5344249245684561,0.5344249245684561,0.0,-19.840000023166116,-0.06317841794087665,-0.04318524770642202,153.02113432581635
2017/08/23/12:21:49.073391,0.026,0.385,0.082,0.02,0.431,0.151,2017/08/23/12:21:49.076751,0.28243152,-9.9635564,-0.56486304,-0.024783675,-0.02687807,-0.342782665,0.2336,0.3511,-0.2692,2017/08/23/12:21:49.075063,21.49646489,36.95512077,0.260069,2.266884370189884,10,0.0001931051463348904,0.0003319719796083363,1.389156924180994,1.389156924180994,0.38587692338360946,0.38587692338360946,0.38587692338360946,0.38587692338360946,0.0,-19.63999999474676,0.028790165137614676,-0.05758033027522935,231.04616748518862
2017/08/23/12:21:49.345923,-0.222,0.262,0.084,0.037,0.352,0.173,2017/08/23/12:21:49.344864,0.72176944,-9.89294852,-0.53348176,0.05550147,0.039793507,-0.333706953,0.2084,0.3678,-0.2746,2017/08/23/12:21:49.347844,21.45919369,36.88231523,0.268113,2.5349973701898842,10,0.00019277033498023714,0.0003313179593065038,1.2362632729317813,1.2362632729317813,0.3434064647032726,0.3434064647032726,0.3434064647032726,0.3434064647032726,0.0,-19.120000001070522,0.07357486646279306,-0.05438142303771661,242.89081870911735
2017/08/23/12:21:49.585310,0.034,0.118,0.0,0.006,0.202,0.154,2017/08/23/12:21:49.589009,1.62398124,-9.30454952,-0.5099458,-0.002094395,0.159523094,-0.301941961,0.2082,0.3854,-0.2889,2017/08/23/12:21:49.588565,21.43836889,36.83199968,0.244145,2.7791423701898843,10,0.00019258326347466762,0.0003308659690980956,0.44208234527065204,0.44208234527065204,0.12280065146407002,0.12280065146407002,0.12280065146407002,0.12280065146407002,0.0,-17.3000000232037,0.1655434495412844,-0.051982242609582056,247.51612019357987
2017/08/23/12:21:49.833411,-0.021,-0.19,-0.038,-0.031,-0.043,0.196,2017/08/23/12:21:49.832545,2.24376152,-8.77891308,-0.392266,-0.218515222,0.255516202,-0.304734487,0.1853,0.3943,-0.276,2017/08/23/12:21:49.835726,21.42670858,36.82175529,0.243536,3.0226783701898845,10,0.00019247851760689902,0.0003307739425979159,0.6881652127214801,0.6881652127214801,0.19115700353374449,0.19115700353374449,0.19115700353374449,0.19115700353374449,0.0,-17.45999997718425,0.22872186748216106,-0.039986340468909275,221.30154570486025
2017/08/23/12:21:50.082833,0.078,-0.144,0.043,-0.05,-0.253,0.216,2017/08/23/12:21:50.084445,3.20089056,-9.00642736,-0.65900688,-0.264591915,0.300545697,0.016755161,0.1773,0.4069,-0.2419,2017/08/23/12:21:50.084746,21.39097934,36.87570157,0.2519,3.2745783701898845,10,0.00019215755785123969,0.0003312585480596478,0.589565263562907,0.589565263562907,0.16376812876747415,0.16376812876747415,0.16376812876747415,0.16376812876747415,0.0,0.960000010362196,0.32628853822629966,-0.06717705198776758,123.51696551880471
2017/08/23/12:21:50.361500,-0.143,-0.302,-0.063,-0.089,-0.362,0.114,2017/08/23/12:21:50.360661,2.36144132,-9.43007464,-0.84729456,-0.108559479,0.356396233,0.463559449,0.2126,0.4074,-0.2066,2017/08/23/12:21:50.363052,21.40073899,36.91326127,0.276216,3.5507943701898848,10,0.00019224522987782968,0.000331595951042041,1.202922640904227,1.202922640904227,0.33414517802895194,0.33414517802895194,0.33414517802895194,0.33414517802895194,0.0,26.559999981109932,0.24071776962283384,-0.08637049541284404,75.43417443121848
2017/08/23/12:21:50.618136,-0.175,-0.334,-0.122,-0.158,-0.394,-0.01,2017/08/23/12:21:50.621015,1.4121576,-9.75957808,-0.85513988,0.024085544,0.380481777,0.505796417,0.27,0.3829,-0.1812,2017/08/23/12:21:50.619522,21.40576015,36.96495034,0.260354,3.8111483701898847,10,0.00019229033551922386,0.0003320602797340999,1.3574482531573717,1.3574482531573717,0.377068959210381,0.377068959210381,0.377068959210381,0.377068959210381,0.0,28.979999986939042,0.14395082568807338,-0.08717022222222222,84.45160392241546
2017/08/23/12:21:50.878356,-0.187,-0.374,-0.103,-0.148,-0.41,-0.035,2017/08/23/12:21:50.880761,0.07060788,-9.65758892,-0.63547092,0.028274334,0.370707933,0.468097305,0.3312,0.3517,-0.1635,2017/08/23/12:21:50.879712,21.40686125,37.0266198,0.259746,4.070894370189885,10,0.00019230022682357168,0.0003326142633848365,1.5053209624528583,1.5053209624528583,0.41814471179246065,0.41814471179246065,0.41814471179246065,0.41814471179246065,0.0,26.819999977948047,0.007197541284403669,-0.06477787155963304,88.97710017259526
2017/08/23/12:21:51.132730,-0.061,-0.304,-0.046,-0.075,-0.448,-0.015,2017/08/23/12:21:51.132569,-0.69823348,-9.36731208,-0.71392412,-0.066671577,0.366170077,0.183608637,0.3738,0.3294,-0.1391,2017/08/23/12:21:51.134104,21.3628731,37.12782826,0.251808,4.322702370189885,10,0.0001919050763564499,0.00033352343029105285,1.1162148180345932,1.1162148180345932,0.3100596716762759,0.3100596716762759,0.3100596716762759,0.3100596716762759,0.0,10.51999998224957,-0.0711756860346585,-0.07277513965341488,113.49117204065907
2017/08/23/12:21:51.383390,-0.086,-0.351,-0.073,-0.017,-0.465,-0.045,2017/08/23/12:21:51.384679,-0.68254284,-9.32808548,-0.81591328,-0.087266463,0.339641072,-0.013962634,0.3856,0.3233,-0.1049,2017/08/23/12:21:51.385168,21.36557338,37.21140942,0.25211,4.574812370189885,10,0.00019192933327344592,0.00033427424919152,1.3009754494224708,1.3009754494224708,0.36138206928401967,0.36138206928401967,0.36138206928401967,0.36138206928401967,0.0,-0.7999999990858667,-0.06957623241590213,-0.08317158817533128,88.14957278831054
2017/08/23/12:21:51.658561,-0.099,-0.296,-0.203,0.036,-0.405,-0.17,2017/08/23/12:21:51.660888,-0.25105024,-9.35946676,-0.75315072,-0.025132741,0.323933109,-0.179768913,0.3875,0.3344,-0.0743,2017/08/23/12:21:51.650422,21.35478781,37.26310591,0.276209,4.851021370189884,10,0.00019183244529284946,0.00033473864453826803,1.1236210749180526,1.1236210749180526,0.3121169652550146,0.3121169652550146,0.3121169652550146,0.3121169652550146,0.0,-10.300000002554478,-0.025591257900101933,-0.07677377370030582,101.78471809559998
2017/08/23/12:21:51.916514,-0.189,-0.13,-0.239,0.006,-0.327,-0.313,2017/08/23/12:21:51.912846,0.2353596,-9.50852784,-0.79237732,0.036651914,0.340339204,-0.093898714,0.3751,0.3465,-0.0495,2017/08/23/12:21:51.934502,21.36928589,37.36893127,0.251958,5.1029793701898845,10,0.0001919626831656486,0.0003356892855731225,0.8258136351502076,0.8258136351502076,0.2293926764306132,0.2293926764306132,0.2293926764306132,0.2293926764306132,0.0,-5.380000013905976,0.023991804281345563,-0.08077240774719674,82.19903868200448
2017/08/23/12:21:52.177955,-0.053,-0.114,-0.274,-0.042,-0.26,-0.374,2017/08/23/12:21:52.181008,0.26674088,-9.50068252,-0.64331624,0.045378561,0.344178928,0.073652894,0.3743,0.3448,-0.0261,2017/08/23/12:21:52.170456,21.30072406,37.43857473,0.268162,5.371141370189885,10,0.00019134678458498024,0.0003363149005569529,0.4525845777310579,0.4525845777310579,0.1257179382586272,0.1257179382586272,0.1257179382586272,0.1257179382586272,0.0,4.2199999751244235,0.027190711518858306,-0.06557759836901121,134.5515977083313
2017/08/23/12:21:52.436863,-0.082,-0.188,-0.264,-0.08,-0.217,-0.415,2017/08/23/12:21:52.433074,0.1176798,-9.34377612,-0.64331624,-0.01012291,0.349763982,0.180467045,0.3858,0.3349,-0.0026,2017/08/23/12:21:52.446444,21.28864355,37.49631032,0.252066,5.623207370189885,10,0.00019123826401365432,0.00033683354581386994,0.7383774644448461,0.7383774644448461,0.20510485123467947,0.20510485123467947,0.20510485123467947,0.20510485123467947,0.0,10.340000019697506,0.011995902140672782,-0.06557759836901121,101.81798650250064
2017/08/23/12:21:52.717669,-0.208,-0.212,-0.314,-0.083,-0.148,-0.432,2017/08/23/12:21:52.717647,-0.45502856,-9.5320638,-0.7060788,-0.058293997,0.34487706,0.2422517,0.4004,0.3137,0.033,2017/08/23/12:21:52.730442,21.27146513,37.53574009,0.284573,5.907780370189885,10,0.00019108394834710743,0.00033718774784405315,1.0691939393767624,1.0691939393767624,0.29699831649354513,0.29699831649354513,0.29699831649354513,0.29699831649354513,0.0,13.879999989869365,-0.04638415494393476,-0.07197541284403669,113.54137593722555
2017/08/23/12:21:52.972627,-0.111,0.122,-0.33,-0.071,-0.036,-0.474,2017/08/23/12:21:52.969316,-0.99635564,-9.7674234,-0.80022264,-0.0429351,0.324980307,0.138230077,0.412,0.2954,0.0632,2017/08/23/12:21:52.982434,21.26400546,37.54533925,0.251669,6.1594493701898845,10,0.00019101693729787998,0.00033727397817103844,0.5937817780969705,0.5937817780969705,0.16493938280471404,0.16493938280471404,0.16493938280471404,0.16493938280471404,0.0,7.920000013868393,-0.10156530479102956,-0.08157213455657492,127.85138497279118
2017/08/23/12:21:53.222292,-0.14,0.034,-0.33,-0.087,0.045,-0.467,2017/08/23/12:21:53.221180,-1.0591182,-10.07339088,-1.00420096,0.00418879,0.318697121,-0.049218285,0.4123,0.294,0.0897,2017/08/23/12:21:53.226619,21.26952439,37.53384802,0.251864,6.411313370189885,10,0.00019106651446280993,0.0003371707511678045,0.5186499397474178,0.5186499397474178,0.14406942770761605,0.14406942770761605,0.14406942770761605,0.14406942770761605,0.0,-2.820000005372047,-0.10796311926605504,-0.10236503160040773,295.65372730955676
2017/08/23/12:21:53.472869,-0.143,0.055,-0.203,-0.174,0.095,-0.389,2017/08/23/12:21:53.473239,-0.60408964,-10.15184408,-1.1375714,0.02268928,0.339990138,-0.050614548,0.3945,0.2976,0.1157,2017/08/23/12:21:53.470482,21.28351607,37.50697925,0.252059,6.663372370189885,10,0.00019119220328781892,0.0003369293860043119,0.5515641757764911,0.5515641757764911,0.1532122710490253,0.1532122710490253,0.1532122710490253,0.1532122710490253,0.0,-2.899999982362322,-0.06157896432212028,-0.11596038735983688,297.5078575298732
2017/08/23/12:21:53.722276,-0.2,0.095,-0.178,-0.213,0.084,-0.281,2017/08/23/12:21:53.725324,-0.54132708,-9.86941256,-1.46707484,-0.013613568,0.342084533,-0.009075712,0.379,0.2978,0.1429,2017/08/23/12:21:53.722426,21.30093878,37.45739977,0.252085,6.915457370189885,10,0.00019134871343873516,0.0003364840079949695,0.7970972337174431,0.7970972337174431,0.2214158982548453,0.2214158982548453,0.2214158982548453,0.2214158982548453,0.0,-0.5199999936762354,-0.055181149847094796,-0.1495489133537207,289.3619697010399
2017/08/23/12:21:53.993824,-0.204,0.011,-0.168,-0.252,0.049,-0.174,2017/08/23/12:21:53.993314,-0.40795664,-9.73604212,-1.44353888,-0.072256631,0.311366739,-0.071558499,0.3643,0.2989,0.1699,2017/08/23/12:21:54.010440,21.31985153,37.40404118,0.26799,7.183447370189885,10,0.0001915186087854833,0.0003360046818181818,0.7354668721295338,0.7354668721295338,0.20429635336931493,0.20429635336931493,0.20429635336931493,0.20429635336931493,0.0,-4.099999980991122,-0.04158579408766564,-0.1471497329255861,289.5166787924163
2017/08/23/12:21:54.232796,-0.214,-0.153,-0.108,-0.226,0.029,-0.132,2017/08/23/12:21:54.229709,0.25105024,-9.63405296,-1.92994872,-0.110653875,0.28937559,-0.119380521,0.3474,0.3033,0.1924,2017/08/23/12:21:54.250459,21.33400062,37.35202529,0.236395,7.419842370189885,10,0.00019164571164211283,0.00033553741726554076,0.9470463557820176,0.9470463557820176,0.26306843216167153,0.26306843216167153,0.26306843216167153,0.26306843216167153,0.0,-6.840000009372894,0.025591257900101933,-0.19673279510703365,285.2171143073708
2017/08/23/12:21:54.482803,-0.237,-0.182,-0.133,-0.187,-0.059,-0.096,2017/08/23/12:21:54.480874,0.25889556,-9.73604212,-2.06331916,-0.13962634,0.28099801,-0.108210414,0.3209,0.3027,0.2204,2017/08/23/12:21:54.494534,21.34978327,37.31232405,0.251165,7.671007370189885,10,0.00019178748895077254,0.0003351807765900108,1.0757496363001942,1.0757496363001942,0.2988193434167206,0.2988193434167206,0.2988193434167206,0.2988193434167206,0.0,-6.200000021563357,0.026390984709480123,-0.21032815086646275,291.6795744395823
2017/08/23/12:21:54.732374,-0.19,-0.227,-0.101,-0.2,-0.083,-0.045,2017/08/23/12:21:54.732762,0.87867584,-9.75173276,-2.51834772,-0.139277274,0.285535866,0.092153385,0.2962,0.2921,0.2516,2017/08/23/12:21:54.738439,21.3522208,37.29720803,0.251888,7.922895370189885,10,0.00019180938555515633,0.0003350449876931369,1.065679051121866,1.065679051121866,0.2960219586449627,0.2960219586449627,0.2960219586449627,0.2960219586449627,0.0,5.280000028344188,0.08956940265035677,-0.25671230581039756,279.16036045693147
2017/08/23/12:21:54.982774,-0.134,-0.093,-0.076,-0.181,-0.151,-0.017,2017/08/23/12:21:54.984677,0.53348176,-9.66543424,-2.53403836,-0.10262536,0.292168117,0.328121899,0.2879,0.2691,0.2788,2017/08/23/12:21:54.982504,21.35311076,37.28122687,0.251915,8.174810370189885,10,0.00019181738016528925,0.0003349014271469637,0.5871974114384362,0.5871974114384362,0.16311039206623226,0.16311039206623226,0.16311039206623226,0.16311039206623226,0.0,18.799999978517867,0.05438142303771661,-0.2583117594291539,273.18739937559974
2017/08/23/12:21:55.259290,-0.156,-0.223,-0.074,-0.139,-0.098,0.017,2017/08/23/12:21:55.261063,-0.14121576,-9.48499188,-2.7850886,-0.0429351,0.274016693,0.464257581,0.2921,0.2398,0.3021,2017/08/23/12:21:55.274447,21.34257206,37.2719631,0.276386,8.451196370189885,10,0.00019172270984549046,0.00033481820966582823,0.9797358827765779,0.9797358827765779,0.27214885632682717,0.27214885632682717,0.27214885632682717,0.27214885632682717,0.0,26.599999998252954,-0.014395082568807338,-0.2839030173292558,221.3162459971736
2017/08/23/12:21:55.516911,0.067,0.057,-0.164,-0.044,-0.049,0.026,2017/08/23/12:21:55.513135,-1.0983448,-9.19471504,-2.9812216,-0.008726646,0.230034395,0.386415896,0.2982,0.2141,0.3181,2017/08/23/12:21:55.518673,21.34499143,37.26123501,0.252072,8.703268370189885,10,0.00019174444331656487,0.00033472183803449516,0.3166772489459892,0.3166772489459892,0.087965902484997,0.087965902484997,0.087965902484997,0.087965902484997,0.0,22.13999997756615,-0.11196175331294597,-0.3038961875637105,282.70859184724634
2017/08/23/12:21:55.777266,0.093,0.117,-0.079,0.054,0.058,0.018,2017/08/23/12:21:55.781133,-1.8436502,-8.91228352,-3.05182948,-0.00837758,0.17243853,0.092153385,0.2972,0.1968,0.3315,2017/08/23/12:21:55.762609,21.35610958,37.25980738,0.267998,8.971266370189886,10,0.0001918443189004671,0.0003347090134746676,0.5380524881459057,0.5380524881459057,0.1494590244849738,0.1494590244849738,0.1494590244849738,0.1494590244849738,0.0,5.280000028344188,-0.18793580020387357,-0.31109372884811415,352.6829541033006
2017/08/23/12:21:56.037875,0.228,-0.05,-0.189,0.205,0.136,-0.044,2017/08/23/12:21:56.041209,-1.70243444,-8.83383032,-3.23227184,-0.008028515,0.146607657,-0.269478837,0.2806,0.2024,0.3391,2017/08/23/12:21:56.054432,21.3870618,37.26601793,0.260076,9.231342370189886,10,0.00019212236615163495,0.000334764803539346,0.8403050874533606,0.8403050874533606,0.23341807984815574,0.23341807984815574,0.23341807984815574,0.23341807984815574,0.0,-15.440000028193852,-0.17354071763506626,-0.3294874454638124,11.34571482429776
2017/08/23/12:21:56.326463,0.168,0.038,-0.211,0.226,0.138,-0.113,2017/08/23/12:21:56.325671,-0.65900688,-9.03780864,-3.4127142,-0.028972466,0.137881011,-0.381179909,0.2422,0.2169,0.3477,2017/08/23/12:21:56.306471,21.42380227,37.30481947,0.284462,9.515804370189885,10,0.00019245240989938914,0.00033511336210923463,0.6200784466500994,0.6200784466500994,0.17224401295836092,0.17224401295836092,0.17224401295836092,0.17224401295836092,0.0,-21.840000020880783,-0.06717705198776758,-0.3478811620795107,46.56285652190834
2017/08/23/12:21:56.587901,0.167,-0.061,-0.255,0.253,0.062,-0.211,2017/08/23/12:21:56.585616,0.22751428,-9.08488056,-3.44409548,-0.046774824,0.152192711,-0.202807259,0.2096,0.2264,0.3558,2017/08/23/12:21:56.590420,21.4536514,37.359091,0.259945,9.775749370189885,10,0.00019272054796981672,0.00033560088932806326,0.6400512479481625,0.6400512479481625,0.17779201331893402,0.17779201331893402,0.17779201331893402,0.17779201331893402,0.0,-11.61999999531658,0.02319207747196738,-0.35108006931702346,61.18937768588234
2017/08/23/12:21:56.847293,0.197,-0.085,-0.313,0.232,-0.067,-0.247,2017/08/23/12:21:56.845520,0.588399,-9.08488056,-3.52254868,-0.046076692,0.172089464,0.061784656,0.1907,0.2256,0.3621,2017/08/23/12:21:56.834484,21.45629741,37.43112407,0.259904,10.035653370189886,10,0.00019274431737333812,0.00033624797044556236,0.7723992749867131,0.7723992749867131,0.21455535416297586,0.21455535416297586,0.21455535416297586,0.21455535416297586,0.0,3.540000027467639,0.05997951070336391,-0.3590773374108053,87.89628469158976
2017/08/23/12:21:57.108663,0.111,-0.156,-0.251,0.232,-0.15,-0.265,2017/08/23/12:21:57.105906,0.41580196,-9.12410716,-3.45978612,-0.033859387,0.161617489,0.304036356,0.1866,0.2182,0.3724,2017/08/23/12:21:57.118523,21.41891896,37.51111942,0.260386,10.296039370189886,10,0.0001924085425799497,0.00033696657761408553,0.6892566430583024,0.6892566430583024,0.19146017862730622,0.19146017862730622,0.19146017862730622,0.19146017862730622,0.0,17.420000017337003,0.04238552089704383,-0.3526795229357798,115.04469894198456
2017/08/23/12:21:57.367332,0.271,-0.262,-0.235,0.258,-0.155,-0.255,2017/08/23/12:21:57.365761,-0.3138128,-9.09272588,-3.43625016,-0.0286234,0.123569311,0.327423768,0.1899,0.2031,0.3788,2017/08/23/12:21:57.370477,21.3580714,37.58284906,0.259855,10.555894370189886,10,0.00019186194214876033,0.00033761093298598633,1.3569899041628866,1.3569899041628866,0.3769416400452463,0.3769416400452463,0.3769416400452463,0.3769416400452463,0.0,18.76000001867062,-0.03198907237512742,-0.3502803425076453,130.3076195657494
2017/08/23/12:21:57.640854,0.173,-0.076,-0.224,0.28,-0.095,-0.246,2017/08/23/12:21:57.642254,-0.76884136,-9.02996332,-3.40486888,-0.017453293,0.093549648,0.071558499,0.189,0.1933,0.3834,2017/08/23/12:21:57.654451,21.27415907,37.67928153,0.276493,10.832387370189887,10,0.000191108148311175,0.0003384771966403162,0.6802476019803378,0.6802476019803378,0.1889576672167605,0.1889576672167605,0.1889576672167605,0.1889576672167605,0.0,4.099999980991122,-0.07837322731906218,-0.3470814352701325,131.02870693708724
2017/08/23/12:21:57.897591,0.325,0.013,-0.283,0.323,-0.013,-0.253,2017/08/23/12:21:57.893977,-0.67469752,-8.95151012,-3.40486888,-0.008726646,0.068416907,-0.183259571,0.1828,0.196,0.3849,2017/08/23/12:21:57.906468,21.21911053,37.72027245,0.251723,11.084110370189887,10,0.00019061364112468558,0.00033884542265540785,1.170935625899221,1.170935625899221,0.3252598960831169,0.3252598960831169,0.3252598960831169,0.3252598960831169,0.0,-10.499999973678056,-0.06877650560652396,-0.3470814352701325,143.32744044798886
2017/08/23/12:21:58.161893,0.309,-0.046,-0.306,0.329,0.041,-0.301,2017/08/23/12:21:58.163723,0.01569064,-8.92797416,-3.26365312,0.004537856,0.059341195,-0.196175008,0.1624,0.2,0.3855,2017/08/23/12:21:58.150486,21.17116396,37.79125448,0.269746,11.353856370189886,10,0.0001901829317283507,0.0003394830621631333,1.1246586682189401,1.1246586682189401,0.31240518561637226,0.31240518561637226,0.31240518561637226,0.31240518561637226,0.0,-11.240000004345161,0.0015994536187563708,-0.3326863527013251,124.03803338382117
2017/08/23/12:21:58.417637,0.318,0.134,-0.305,0.263,0.071,-0.363,2017/08/23/12:21:58.414279,0.21182364,-8.88874756,-3.2165812,0.016406095,0.061086524,-0.067718775,0.1486,0.2039,0.3868,2017/08/23/12:21:58.402599,21.13302633,37.87010288,0.250556,11.604412370189886,10,0.00018984033713618397,0.0003401913661516349,1.2422869233796194,1.2422869233796194,0.34507970093878315,0.34507970093878315,0.34507970093878315,0.34507970093878315,0.0,-3.880000001296031,0.02159262385321101,-0.327887991845056,115.81226435239469
2017/08/23/12:21:58.701067,0.035,0.028,-0.362,0.151,0.077,-0.409,2017/08/23/12:21:58.698999,0.26674088,-9.07703524,-3.10674672,0.035604717,0.052708943,0.048520153,0.1413,0.2071,0.3859,2017/08/23/12:21:58.686480,21.09535752,37.95504056,0.28472,11.889132370189886,10,0.00018950195400646783,0.00034095437082285303,0.1613587307833078,0.1613587307833078,0.044821869662029945,0.044821869662029945,0.044821869662029945,0.044821869662029945,0.0,2.77999998822902,0.027190711518858306,-0.31669181651376144,113.91669377682172
2017/08/23/12:21:58.957534,0.05,0.125,-0.377,0.044,0.117,-0.442,2017/08/23/12:21:58.958731,0.00784532,-9.1790244,-2.97337628,0.053407075,0.047822022,0.087964594,0.1413,0.2112,0.3837,2017/08/23/12:21:58.974414,21.10475215,38.01183445,0.259732,12.148864370189886,10,0.0001895863470176069,0.00034146455668343517,0.48466483264210547,0.48466483264210547,0.13462912017836262,0.13462912017836262,0.13462912017836262,0.13462912017836262,0.0,5.039999982781803,0.0007997268093781854,-0.30309646075433233,80.60740144429414
2017/08/23/12:21:59.217083,-0.085,0.011,-0.351,-0.038,0.116,-0.457,2017/08/23/12:21:59.218944,-0.06276256,-9.28885888,-2.84785116,0.069115038,0.043284165,0.087266463,0.1417,0.2153,0.38,2017/08/23/12:21:59.226565,21.07039,38.06137407,0.260213,12.409077370189886,10,0.00018927766798418973,0.0003419095766259432,0.30855171365591216,0.30855171365591216,0.08570880934886449,0.08570880934886449,0.08570880934886449,0.08570880934886449,0.0,5.0000000229345565,-0.006397814475025483,-0.2903008318042813,124.74632441584403
2017/08/23/12:21:59.476869,-0.058,0.216,-0.356,-0.124,0.128,-0.444,2017/08/23/12:21:59.479110,-0.18828768,-9.4536106,-2.77724328,0.079237948,0.037699112,0.056548668,0.142,0.2217,0.377,2017/08/23/12:21:59.466526,21.07776134,38.08486305,0.260166,12.669243370189886,10,0.0001893438855551563,0.00034212058075817463,0.8051454526978339,0.8051454526978339,0.2236515146382872,0.2236515146382872,0.2236515146382872,0.2236515146382872,0.0,3.240000013486494,-0.019193443425076454,-0.28310329051987765,72.5770367031983
2017/08/23/12:21:59.732626,-0.165,-0.103,-0.382,-0.191,0.136,-0.413,2017/08/23/12:21:59.730581,-0.196133,-9.58698104,-2.7066354,0.07574729,0.028972466,0.036302848,0.1424,0.2285,0.3728,2017/08/23/12:21:59.722490,21.09759106,38.09039074,0.251471,12.920714370189886,10,0.00018952201814588572,0.0003421702366151635,0.7002347035101874,0.7002347035101874,0.19450963986394093,0.19450963986394093,0.19450963986394093,0.19450963986394093,0.0,2.0799999747049416,-0.019993170234454637,-0.275905749235474,15.576229015144197
2017/08/23/12:22:00.004031,-0.232,0.1,-0.269,-0.208,0.134,-0.36,2017/08/23/12:22:00.007036,-0.29027684,-9.65758892,-2.67525412,0.064926248,0.020943951,0.010471976,0.1416,0.2357,0.3684,2017/08/23/12:22:00.002577,21.12913257,38.08793254,0.276455,13.197169370189886,10,0.00018980535905497664,0.00034214815432985984,0.9094828420591562,0.9094828420591562,0.25263412279421005,0.25263412279421005,0.25263412279421005,0.25263412279421005,0.0,0.6000000279622897,-0.02958989194699286,-0.27270684199796125,355.54363883360264
2017/08/23/12:22:00.241729,-0.124,0.082,-0.259,-0.188,0.11,-0.297,2017/08/23/12:22:00.242572,-0.17259704,-9.6889702,-2.56541964,0.053058009,0.012217305,0.008726646,0.1399,0.24,0.3652,2017/08/23/12:22:00.246524,21.16635899,38.07231886,0.235536,13.432705370189886,10,0.00019013976814588572,0.0003420078948975926,0.5351784749034663,0.5351784749034663,0.14866068747318506,0.14866068747318506,0.14866068747318506,0.14866068747318506,0.0,0.49999998510472177,-0.01759398980632008,-0.26151066666666667,337.24561968048624
2017/08/23/12:22:00.482048,-0.147,0.068,-0.268,-0.181,0.091,-0.237,2017/08/23/12:22:00.478199,-0.08629852,-9.69681552,-2.47912112,0.045029495,0.0,0.000349066,0.1402,0.2456,0.3622,2017/08/23/12:22:00.494453,21.19812967,38.05591628,0.235627,13.668332370189885,10,0.00019042516771469636,0.0003418605486884657,0.5830777649679328,0.5830777649679328,0.16196604582442578,0.16196604582442578,0.16196604582442578,0.16196604582442578,0.0,0.020000008571513593,-0.00879699490316004,-0.2527136717635066,332.69357893188607
2017/08/23/12:22:00.720986,0.086,0.03,-0.203,-0.154,0.102,-0.19,2017/08/23/12:22:00.721999,-0.0784532,-9.67327956,-2.43989452,0.039793507,-0.00418879,-0.004886922,0.1394,0.2485,0.3586,2017/08/23/12:22:00.734425,21.22785847,38.03583206,0.2438,13.912132370189886,10,0.00019069222484728712,0.00034168012989579586,0.3278965690579882,0.3278965690579882,0.0910823802938856,0.0910823802938856,0.0910823802938856,0.0910823802938856,0.0,-0.2800000054096313,-0.007997268093781856,-0.2487150377166157,325.957777047616
2017/08/23/12:22:00.957305,-0.017,0.0,-0.177,-0.096,0.079,-0.141,2017/08/23/12:22:00.957724,-0.01569064,-9.61836232,-2.40066792,0.030717795,-0.006283185,0.01012291,0.1424,0.2535,0.3563,2017/08/23/12:22:00.938459,21.25422927,38.01891859,0.235725,14.147857370189886,10,0.00019092911669062163,0.00034152819430470716,0.061200000000000004,0.061200000000000004,0.017,0.017,0.017,0.017,0.0,0.5800000193907762,-0.0015994536187563708,-0.24471640366972477,327.3250592085377
2017/08/23/12:22:01.217988,0.044,0.105,-0.194,-0.054,0.067,-0.122,2017/08/23/12:22:01.217774,-0.17259704,-9.59482636,-2.33006004,0.026179939,-0.004537856,0.021642083,0.1428,0.2555,0.3544,2017/08/23/12:22:01.222491,21.28176027,38.0138903,0.26005,14.407907370189886,10,0.0001911764307402084,0.0003414830246137262,0.4098469958411309,0.4098469958411309,0.11384638773364747,0.11384638773364747,0.11384638773364747,0.11384638773364747,0.0,1.2400000157718272,-0.01759398980632008,-0.2375188623853211,349.64952348105123
2017/08/23/12:22:01.457281,0.0,0.064,-0.144,0.035,0.042,-0.107,2017/08/23/12:22:01.453704,-0.10198916,-9.52421848,-2.25945216,0.019547688,-0.001745329,0.014660766,0.1431,0.2568,0.3519,2017/08/23/12:22:01.466567,21.29675697,38.01364143,0.23593,14.643837370189885,10,0.00019131114777218828,0.000341480788986705,0.23040000000000002,0.23040000000000002,0.064,0.064,0.064,0.064,0.0,0.8400000162288939,-0.01039644852191641,-0.2303213211009174,359.0492647115741
2017/08/23/12:22:01.696444,0.098,-0.054,-0.215,0.078,0.008,-0.116,2017/08/23/12:22:01.697167,-0.10198916,-9.46930124,-2.16530832,0.016057029,0.001396263,-0.001745329,0.1463,0.2599,0.3504,2017/08/23/12:22:01.710506,21.29500258,38.02771781,0.243463,14.887300370189886,10,0.00019129538789076534,0.0003416072386812792,0.4028141010441417,0.4028141010441417,0.11189280584559493,0.11189280584559493,0.11189280584559493,0.11189280584559493,0.0,-0.09999998556178846,-0.01039644852191641,-0.22072459938837918,97.10434555914382
2017/08/23/12:22:01.937649,0.267,-0.109,-0.238,0.124,0.035,-0.146,2017/08/23/12:22:01.940946,-0.16475172,-9.46930124,-2.10254576,0.017104227,-0.000349066,-0.010471976,0.1429,0.2605,0.3505,2017/08/23/12:22:01.954439,21.27962449,38.04579802,0.243779,15.131079370189886,10,0.0001911572447897952,0.00034176965522817105,1.0382115391383395,1.0382115391383395,0.2883920942050943,0.2883920942050943,0.2883920942050943,0.2883920942050943,0.0,-0.6000000279622897,-0.016794262996941894,-0.2143267849133537,130.38276637013726
2017/08/23/12:22:02.176829,0.27,-0.001,-0.276,0.161,0.004,-0.18,2017/08/23/12:22:02.176749,-0.29027684,-9.46145592,-1.8828768,0.019896753,0.003141593,-0.012915436,0.1451,0.2618,0.3485,2017/08/23/12:22:02.158574,21.26267614,38.07475133,0.235803,15.366882370189886,10,0.00019100499586776858,0.0003420297460474308,0.9720066666438045,0.9720066666438045,0.27000185184550124,0.27000185184550124,0.27000185184550124,0.27000185184550124,0.0,-0.739999973371326,-0.02958989194699286,-0.1919344342507645,120.34335349328492
2017/08/23/12:22:02.437104,0.114,0.01,-0.259,0.146,0.021,-0.208,2017/08/23/12:22:02.436700,-0.29027684,-9.46145592,-1.77304232,0.025830873,0.010821041,-0.002443461,0.1447,0.2658,0.3455,2017/08/23/12:22:02.442425,21.23419751,38.1131524,0.259951,15.626833370189885,10,0.00019074916915199426,0.0003423747071505569,0.41197592162649505,0.41197592162649505,0.11443775600735974,0.11443775600735974,0.11443775600735974,0.11443775600735974,0.0,-0.14000000270481566,-0.02958989194699286,-0.18073825891946993,126.5610132320413
2017/08/23/12:22:02.676871,-0.02,-0.054,-0.279,0.136,0.034,-0.242,2017/08/23/12:22:02.680682,-0.25889556,-9.46145592,-1.63967188,0.036651914,0.017104227,0.002792527,0.1398,0.2681,0.3447,2017/08/23/12:22:02.686532,21.21095682,38.14950133,0.243982,15.870815370189886,10,0.00019054039543657924,0.0003427012336507366,0.20730499270398675,0.20730499270398675,0.05758472019555187,0.05758472019555187,0.05758472019555187,0.05758472019555187,0.0,0.16000001127632923,-0.026390984709480123,-0.16714290316004077,122.59393551198936
2017/08/23/12:22:02.916512,-0.073,0.035,-0.253,0.065,0.037,-0.281,2017/08/23/12:22:02.916184,-0.36088472,-9.52421848,-1.49845612,0.042586034,0.028972466,0.00418879,0.1357,0.268,0.349,2017/08/23/12:22:02.930417,21.19153115,38.18669706,0.235502,16.106317370189885,10,0.00019036589247215234,0.0003430353670499461,0.291444402931331,0.291444402931331,0.08095677859203639,0.08095677859203639,0.08095677859203639,0.08095677859203639,0.0,0.23999998826660413,-0.03678743323139653,-0.15274782059123343,117.57605652540045
2017/08/23/12:22:03.157314,-0.129,0.078,-0.239,0.042,0.049,-0.278,2017/08/23/12:22:03.160006,-0.3138128,-9.59482636,-1.372931,0.050265482,0.037350046,0.010821041,0.1379,0.2748,0.3388,2017/08/23/12:22:03.174429,21.18207065,38.21078708,0.243822,16.350139370189886,10,0.00019028090774344232,0.0003432517703916637,0.5426932835405281,0.5426932835405281,0.15074813431681336,0.15074813431681336,0.15074813431681336,0.15074813431681336,0.0,0.6199999792380239,-0.03198907237512742,-0.13995219164118244,111.44065554289595
2017/08/23/12:22:03.397303,-0.174,0.155,-0.241,-0.037,0.03,-0.307,2017/08/23/12:22:03.395773,-0.29027684,-9.63405296,-1.30232312,0.055152404,0.045378561,-0.002792527,0.1349,0.2802,0.3352,2017/08/23/12:22:03.378560,21.18126057,38.22871755,0.235767,16.585906370189885,10,0.00019027363070427594,0.0003434128418074021,0.8388926987404289,0.8388926987404289,0.23302574965011913,0.23302574965011913,0.23302574965011913,0.23302574965011913,0.0,-0.16000001127632923,-0.02958989194699286,-0.1327546503567788,92.58680472067824
2017/08/23/12:22:03.656345,-0.186,0.097,-0.302,-0.07,0.05,-0.331,2017/08/23/12:22:03.655703,-0.25105024,-9.61836232,-1.15326204,0.054105207,0.046774824,-0.007679449,0.1299,0.2847,0.3341,2017/08/23/12:22:03.662691,21.18393685,38.2364608,0.25993,16.845836370189886,10,0.00019029767202659,0.0003434824002874596,0.7551852752801792,0.7551852752801792,0.20977368757782755,0.20977368757782755,0.20977368757782755,0.20977368757782755,0.0,-0.4400000166859605,-0.025591257900101933,-0.11755984097859326,70.93344383127163
2017/08/23/12:22:03.892208,-0.14,-0.008,-0.306,-0.117,0.045,-0.346,2017/08/23/12:22:03.891328,-0.28243152,-9.68112488,-1.04342756,0.050265482,0.04118977,0.006283185,0.1261,0.2889,0.3293,2017/08/23/12:22:03.906460,21.1970033,38.23655347,0.235625,17.081461370189885,10,0.00019041504940711462,0.0003434832327524254,0.5048221865171935,0.5048221865171935,0.14022838514366484,0.14022838514366484,0.14022838514366484,0.14022838514366484,0.0,0.35999998239990616,-0.028790165137614676,-0.10636366564729867,0.4063468552293336
2017/08/23/12:22:04.116951,-0.129,-0.059,-0.285,-0.187,0.052,-0.354,2017/08/23/12:22:04.118916,-0.28243152,-9.65758892,-0.98851032,0.044331363,0.037350046,0.001745329,0.1257,0.295,0.3239,2017/08/23/12:22:04.110604,21.21445305,38.22428799,0.227588,17.309049370189886,10,0.0001905718024613726,0.00034337305057491915,0.5106673281109728,0.5106673281109728,0.14185203558638135,0.14185203558638135,0.14185203558638135,0.14185203558638135,0.0,0.09999998556178846,-0.028790165137614676,-0.10076557798165138,324.8965049128456
2017/08/23/12:22:04.341735,-0.173,-0.068,-0.285,-0.193,0.031,-0.36,2017/08/23/12:22:04.338303,-0.12552512,-9.6889702,-0.87867584,0.039095375,0.031764992,-0.001396263,0.1223,0.296,0.323,2017/08/23/12:22:04.354512,21.24403082,38.20214317,0.219387,17.528436370189887,10,0.00019083750287459574,0.0003431741211821775,0.6691837415837298,0.6691837415837298,0.18588437266214716,0.18588437266214716,0.18588437266214716,0.18588437266214716,0.0,-0.07999997699027486,-0.012795628950050967,-0.08956940265035677,323.17787220490936
2017/08/23/12:22:04.567534,-0.109,0.004,-0.303,-0.2,0.04,-0.365,2017/08/23/12:22:04.566068,-0.12552512,-9.70466084,-0.80022264,0.033510322,0.02687807,0.012217305,0.1186,0.2988,0.3204,2017/08/23/12:22:04.586487,21.27072179,38.17551303,0.227765,17.75620137018989,10,0.00019107727084081925,0.0003429348996586417,0.39266413128779665,0.39266413128779665,0.10907336980216573,0.10907336980216573,0.10907336980216573,0.10907336980216573,0.0,0.7000000135240781,-0.012795628950050967,-0.08157213455657492,315.06536436986596
2017/08/23/12:22:04.827116,-0.25,0.055,-0.282,-0.219,0.052,-0.369,2017/08/23/12:22:04.825950,-0.29027684,-9.75173276,-0.72176944,0.032463124,0.013613568,-0.011868239,0.1175,0.302,0.3169,2017/08/23/12:22:04.830433,21.30102235,38.14898581,0.259882,18.01608337018989,10,0.00019134946415738413,0.0003426966026769673,0.9215226530042548,0.9215226530042548,0.2559785147234041,0.2559785147234041,0.2559785147234041,0.2559785147234041,0.0,-0.6800000049525646,-0.02958989194699286,-0.07357486646279306,318.7988386108345
2017/08/23/12:22:05.054318,-0.197,0.065,-0.27,-0.235,0.062,-0.352,2017/08/23/12:22:05.053470,-0.24320492,-9.82234064,-0.68254284,0.031415927,0.00837758,-0.057595865,0.1163,0.3047,0.3145,2017/08/23/12:22:05.034456,21.33193622,38.11900553,0.22752,18.243603370189888,10,0.00019162716690621632,0.0003424272864714337,0.746806963009853,0.746806963009853,0.20744637861384807,0.20744637861384807,0.20744637861384807,0.20744637861384807,0.0,-3.2999999819052555,-0.02479153109072375,-0.06957623241590213,315.87835327984175
2017/08/23/12:22:05.275693,-0.211,0.062,-0.262,-0.248,0.031,-0.335,2017/08/23/12:22:05.273491,0.0392266,-9.89294852,-0.65900688,0.035953783,0.004537856,-0.069115038,0.1099,0.3076,0.3154,2017/08/23/12:22:05.278423,21.37275833,38.08735915,0.220021,18.463624370189887,10,0.00019199387648221344,0.00034214300350341354,0.7917135845746238,0.7917135845746238,0.21992044015961773,0.21992044015961773,0.21992044015961773,0.21992044015961773,0.0,-3.9599999782863065,0.003998634046890928,-0.06717705198776758,322.2162100945988
2017/08/23/12:22:05.501681,-0.24,0.034,-0.294,-0.27,0.068,-0.314,2017/08/23/12:22:05.500350,0.2745862,-9.90079384,-0.588399,0.036302848,0.001745329,-0.046425758,0.1058,0.3108,0.31,2017/08/23/12:22:05.514593,21.41054342,38.04854971,0.226859,18.690483370189888,10,0.00019233330416816384,0.0003417943739669422,0.8726269305951999,0.8726269305951999,0.24239636960977776,0.24239636960977776,0.24239636960977776,0.24239636960977776,0.0,-2.6599999940957177,0.027990438328236493,-0.05997951070336391,314.2337908064369
2017/08/23/12:22:05.725448,-0.3,-0.09,-0.241,-0.262,0.049,-0.297,2017/08/23/12:22:05.728022,0.37657536,-9.9635564,-0.55701772,0.040142573,0.006283185,-0.02687807,0.1046,0.3137,0.3076,2017/08/23/12:22:05.718504,21.45409373,38.01358203,0.227672,18.918155370189886,10,0.00019272452146963708,0.0003414802553898671,1.1275531029623393,1.1275531029623393,0.3132091952673165,0.3132091952673165,0.3132091952673165,0.3132091952673165,0.0,-1.5399999724571927,0.03838688685015291,-0.056780603465851176,321.23811046264075
2017/08/23/12:22:05.986763,-0.207,-0.041,-0.25,-0.274,0.039,-0.254,2017/08/23/12:22:05.988177,0.40011132,-9.90079384,-0.4314926,0.04118977,0.003141593,0.043284165,0.1043,0.3172,0.3046,2017/08/23/12:22:06.002458,21.50925395,37.97460384,0.260155,19.178310370189887,10,0.00019322003189004673,0.00034113010995328783,0.7596767733714122,0.7596767733714122,0.21102132593650338,0.21102132593650338,0.21102132593650338,0.21102132593650338,0.0,2.479999974247875,0.04078606727828746,-0.043984974515800204,324.75360182692805
2017/08/23/12:22:06.211662,-0.133,0.11,-0.207,-0.245,0.051,-0.215,2017/08/23/12:22:06.215644,0.32165812,-9.90079384,-0.38442068,0.039793507,-0.002094395,0.078888882,0.1074,0.3194,0.3015,2017/08/23/12:22:06.206635,21.55031214,37.93685294,0.227467,19.405777370189888,10,0.00019358886219906574,0.00034079098939992814,0.6213416451518441,0.6213416451518441,0.1725949014310678,0.1725949014310678,0.1725949014310678,0.1725949014310678,0.0,4.519999989105568,0.032788799184505606,-0.03918661365953109,317.40305572421624
2017/08/23/12:22:06.434508,-0.093,0.109,-0.187,-0.219,0.069,-0.194,2017/08/23/12:22:06.434934,0.03138128,-9.87725788,-0.29027684,0.035255651,-0.009075712,0.093549648,0.1137,0.3227,0.2984,2017/08/23/12:22:06.450430,21.5995287,37.90304456,0.21929,19.62506737018989,10,0.00019403098005749193,0.0003404872849443047,0.5158185727559643,0.5158185727559643,0.14328293687665675,0.14328293687665675,0.14328293687665675,0.14328293687665675,0.0,5.360000005334463,0.0031989072375127416,-0.02958989194699286,325.5136212599649
2017/08/23/12:22:06.661357,-0.214,0.06,-0.227,-0.159,0.095,-0.166,2017/08/23/12:22:06.662712,-0.04707192,-9.79095936,-0.18044236,0.027227136,-0.014660766,0.046774824,0.1193,0.323,0.2959,2017/08/23/12:22:06.646498,21.64023752,37.87870911,0.227778,19.85284537018989,10,0.0001943966719367589,0.0003402686768774704,0.8001075927648731,0.8001075927648731,0.22225210910135362,0.22225210910135362,0.22225210910135362,0.22225210910135362,0.0,2.6800000026672315,-0.0047983608562691136,-0.018393716615698264,329.1293108069246
2017/08/23/12:22:06.880245,-0.024,0.029,-0.202,-0.137,0.132,-0.157,2017/08/23/12:22:06.882434,-0.00784532,-9.73604212,-0.1569064,0.021991149,-0.018849556,-0.026179939,0.1209,0.3256,0.2928,2017/08/23/12:22:06.886458,21.68679907,37.86353423,0.219722,20.07256737018989,10,0.00019481493954365793,0.0003401323592346389,0.13551501761797474,0.13551501761797474,0.037643060449437424,0.037643060449437424,0.037643060449437424,0.037643060449437424,0.0,-1.5000000126099449,-0.0007997268093781854,-0.01599453618756371,341.94868710112854
2017/08/23/12:22:07.141505,-0.027,0.165,-0.235,-0.068,0.164,-0.169,2017/08/23/12:22:07.141900,-0.00784532,-9.6497436,-0.08629852,0.016057029,-0.021642083,-0.048171087,0.1193,0.3275,0.2906,2017/08/23/12:22:07.122611,21.73846638,37.85535877,0.259466,20.33203337018989,10,0.00019527907276320515,0.000340058918163852,0.6019001910616079,0.6019001910616079,0.1671944975171133,0.1671944975171133,0.1671944975171133,0.1671944975171133,0.0,-2.7599999796575063,-0.0007997268093781854,-0.00879699490316004,351.00847931599606
2017/08/23/12:22:07.364345,-0.002,0.033,-0.25,-0.046,0.178,-0.193,2017/08/23/12:22:07.361988,0.0392266,-9.63405296,0.01569064,0.011868239,-0.023038346,-0.042236968,0.1182,0.3295,0.2891,2017/08/23/12:22:07.374447,21.78498399,37.86514418,0.220088,20.55212137018989,10,0.00019569694565217392,0.00034014682159540065,0.11901798183467908,0.11901798183467908,0.03306055050963308,0.03306055050963308,0.03306055050963308,0.03306055050963308,0.0,-2.4200000058291136,0.003998634046890928,0.0015994536187563708,11.879492341206577
2017/08/23/12:22:07.583160,-0.053,0.105,-0.273,-0.044,0.201,-0.22,2017/08/23/12:22:07.581332,0.18828768,-9.61836232,0.02353596,0.008028515,-0.021991149,-0.042236968,0.1134,0.328,0.2891,2017/08/23/12:22:07.570478,21.82110278,37.88402501,0.219344,20.77146537018989,10,0.00019602140477901545,0.0003403164302012217,0.42342489298575725,0.42342489298575725,0.11761802582937701,0.11761802582937701,0.11761802582937701,0.11761802582937701,0.0,-2.4200000058291136,0.019193443425076454,0.0023991804281345568,27.597985348252745
2017/08/23/12:22:07.806644,0.01,0.146,-0.216,-0.047,0.216,-0.249,2017/08/23/12:22:07.808503,0.12552512,-9.65758892,0.02353596,0.006632251,-0.019198622,-0.064926248,0.1171,0.3321,0.288,2017/08/23/12:22:07.814427,21.86986305,37.90453299,0.227171,20.99863637018989,10,0.00019645942373338124,0.00034050065567732665,0.5268314341418894,0.5268314341418894,0.14634206503941372,0.14634206503941372,0.14634206503941372,0.14634206503941372,0.0,-3.7199999900197023,0.012795628950050967,0.0023991804281345568,22.81103343447542
2017/08/23/12:22:08.027827,-0.19,0.029,-0.332,-0.053,0.203,-0.281,2017/08/23/12:22:08.028139,0.22751428,-9.6497436,0.07060788,0.011519173,-0.011868239,-0.029321531,0.11,0.3311,0.2887,2017/08/23/12:22:08.010636,21.91257414,37.92873062,0.219636,21.21827237018989,10,0.0001968431022278117,0.00034071802569169964,0.6919214984375034,0.6919214984375034,0.19220041623263984,0.19220041623263984,0.19220041623263984,0.19220041623263984,0.0,-1.6799999751620083,0.02319207747196738,0.007197541284403669,29.53337895934964
2017/08/23/12:22:08.281415,-0.014,0.131,-0.285,-0.073,0.206,-0.313,2017/08/23/12:22:08.279627,0.3138128,-9.67327956,0.1176798,0.012217305,-0.004886922,-0.005934119,0.1128,0.333,0.2872,2017/08/23/12:22:08.294434,21.97035748,37.95009113,0.251488,21.46976037018989,10,0.00019736217642831477,0.00034090990954006465,0.4742854836488252,0.4742854836488252,0.13174596768022923,0.13174596768022923,0.13174596768022923,0.13174596768022923,0.0,-0.33999997382839253,0.03198907237512742,0.011995902140672782,20.287616625340174
2017/08/23/12:22:08.505213,0.005,0.131,-0.269,-0.081,0.218,-0.344,2017/08/23/12:22:08.507345,0.28243152,-9.62620764,0.14121576,0.009773844,0.000698132,0.033859387,0.1113,0.3346,0.286,2017/08/23/12:22:08.498582,22.01326707,37.97113622,0.227718,21.697478370189888,10,0.00019774763807042762,0.00034109895993532157,0.47194338643528005,0.47194338643528005,0.13109538512091112,0.13109538512091112,0.13109538512091112,0.13109538512091112,0.0,1.9399999720001257,0.028790165137614676,0.014395082568807338,26.1257292726434
2017/08/23/12:22:08.727101,-0.074,0.077,-0.253,-0.099,0.19,-0.361,2017/08/23/12:22:08.726813,0.09414384,-9.65758892,0.196133,0.009075712,0.002443461,0.107512282,0.1165,0.3342,0.2837,2017/08/23/12:22:08.742577,22.06817739,37.99317861,0.219468,21.916946370189887,10,0.00019824090361121092,0.0003412969691879267,0.3844591005555727,0.3844591005555727,0.1067941945987702,0.1067941945987702,0.1067941945987702,0.1067941945987702,0.0,6.160000004420329,0.009596721712538227,0.019993170234454637,21.871773078265196
2017/08/23/12:22:08.947114,-0.131,0.184,-0.316,-0.104,0.195,-0.361,2017/08/23/12:22:08.946046,-0.02353596,-9.7281968,0.14121576,0.005585054,0.010471976,0.050614548,0.1184,0.3309,0.2899,2017/08/23/12:22:08.934439,22.11069825,38.00861748,0.219233,22.136179370189886,10,0.0001986228732482932,0.000341435658282429,0.8131299527135869,0.8131299527135869,0.22586943130932968,0.22586943130932968,0.22586943130932968,0.22586943130932968,0.0,2.899999982362322,-0.0023991804281345568,0.014395082568807338,19.95541872786248
2017/08/23/12:22:09.167204,-0.093,0.1,-0.306,-0.122,0.208,-0.362,2017/08/23/12:22:09.165979,-0.37657536,-9.8851032,0.24320492,-0.001396263,0.016057029,0.003141593,0.1167,0.3292,0.2909,2017/08/23/12:22:09.182599,22.16393307,38.02283863,0.219933,22.356112370189887,10,0.00019910108758533954,0.00034156340846209127,0.49162082950176145,0.49162082950176145,0.13656134152826707,0.13656134152826707,0.13656134152826707,0.13656134152826707,0.0,0.18000001984784283,-0.03838688685015291,0.02479153109072375,14.956733883411944
2017/08/23/12:22:09.416785,-0.177,0.136,-0.31,-0.159,0.164,-0.351,2017/08/23/12:22:09.417546,-0.21966896,-9.72035148,0.21966896,-0.007679449,0.01850049,-0.014660766,0.1226,0.335,0.2829,2017/08/23/12:22:09.414474,22.22247997,38.03526298,0.251567,22.60767937018989,10,0.00019962702093065035,0.00034167501778656123,0.8035745142797897,0.8035745142797897,0.22321514285549712,0.22321514285549712,0.22321514285549712,0.22321514285549712,0.0,-0.8400000162288939,-0.022392350662589194,0.022392350662589194,11.981105695844319
2017/08/23/12:22:09.637205,-0.071,0.17,-0.276,-0.175,0.167,-0.34,2017/08/23/12:22:09.637156,-0.196133,-9.78311404,0.12552512,-0.009773844,0.020245819,0.005934119,0.1184,0.3326,0.284,2017/08/23/12:22:09.626469,22.26787326,38.03340152,0.21961,22.827289370189888,10,0.00020003479392741643,0.0003416582960833633,0.6632310004817327,0.6632310004817327,0.18423083346714797,0.18423083346714797,0.18423083346714797,0.18423083346714797,0.0,0.33999997382839253,-0.019993170234454637,0.012795628950050967,357.6517657394766
2017/08/23/12:22:09.856567,-0.141,0.11,-0.216,-0.238,0.157,-0.335,2017/08/23/12:22:09.856328,-0.22751428,-9.8458766,0.10983448,-0.009075712,0.024783675,0.009075712,0.1205,0.3326,0.2856,2017/08/23/12:22:09.862461,22.32616204,38.03026665,0.219172,23.04646137018989,10,0.0002005584085519224,0.00034163013519583185,0.643796365320588,0.643796365320588,0.17883232370016333,0.17883232370016333,0.17883232370016333,0.17883232370016333,0.0,0.5199999936762354,-0.02319207747196738,0.011196175331294597,356.92150113090247
2017/08/23/12:22:10.076709,-0.088,-0.1,-0.262,-0.238,0.153,-0.321,2017/08/23/12:22:10.075824,-0.28243152,-9.83803128,0.0392266,-0.006981317,0.031764992,-0.001047198,0.1173,0.3302,0.2881,2017/08/23/12:22:10.058488,22.38164704,38.01450263,0.219496,23.265957370189888,10,0.00020105683650736616,0.00034148852524254405,0.4795437831939854,0.4795437831939854,0.1332066064427737,0.1332066064427737,0.1332066064427737,0.1332066064427737,0.0,-0.060000025714540786,-0.028790165137614676,0.003998634046890928,344.1394528070753
2017/08/23/12:22:10.296379,-0.139,0.012,-0.276,-0.289,0.102,-0.296,2017/08/23/12:22:10.295086,-0.09414384,-9.87725788,0.0784532,-0.003490659,0.035255651,0.021293017,0.1162,0.3322,0.2871,2017/08/23/12:22:10.302483,22.44707993,37.99886439,0.219262,23.48521937018989,10,0.00020164462747035574,0.0003413480451850521,0.5022612865829896,0.5022612865829896,0.13951702405083044,0.13951702405083044,0.13951702405083044,0.13951702405083044,0.0,1.2200000072003137,-0.009596721712538227,0.007997268093781856,346.55863710317226
2017/08/23/12:22:10.546127,-0.175,-0.01,-0.236,-0.266,0.102,-0.264,2017/08/23/12:22:10.547139,-0.20397832,-9.93217512,0.05491724,-0.001047198,0.037699112,0.030368729,0.114,0.3312,0.2873,2017/08/23/12:22:10.538579,22.51224326,37.96730518,0.252053,23.73727237018989,10,0.00020222999694574203,0.0003410645452748832,0.6310277331464917,0.6310277331464917,0.17528548142958103,0.17528548142958103,0.17528548142958103,0.17528548142958103,0.0,1.740000000876549,-0.02079289704383282,0.005598087665647298,334.1586591837251
2017/08/23/12:22:10.766669,-0.231,0.03,-0.231,-0.269,0.097,-0.238,2017/08/23/12:22:10.766422,-0.29027684,-9.94786576,0.08629852,0.000698132,0.039793507,-0.001396263,0.1135,0.3303,0.2884,2017/08/23/12:22:10.750462,22.56195096,37.94095827,0.219283,23.95655537018989,10,0.00020267652676967302,0.00034082786803808844,0.8385836630891399,0.8385836630891399,0.23293990641364998,0.23293990641364998,0.23293990641364998,0.23293990641364998,0.0,-0.07999997699027486,-0.02958989194699286,0.00879699490316004,332.0747644326697
2017/08/23/12:22:10.986224,-0.168,0.044,-0.192,-0.272,0.113,-0.204,2017/08/23/12:22:10.985914,-0.10983448,-9.91648448,0.0,0.0,0.040491639,-0.026529005,0.1108,0.3317,0.2878,2017/08/23/12:22:10.986419,22.62355704,37.91225299,0.219492,24.176047370189888,10,0.00020322994107078695,0.0003405700053000359,0.6251988483674614,0.6251988483674614,0.1736663467687393,0.1736663467687393,0.1736663467687393,0.1736663467687393,0.0,-1.5200000211814586,-0.011196175331294597,0.0,335.0168903197116
2017/08/23/12:22:11.205614,-0.115,-0.062,-0.219,-0.248,0.122,-0.172,2017/08/23/12:22:11.205289,0.0784532,-9.86941256,-0.00784532,0.001047198,0.036651914,-0.015707963,0.1062,0.3315,0.288,2017/08/23/12:22:11.186591,22.67858768,37.88698869,0.219375,24.395422370189888,10,0.000203724287459576,0.0003403430532698527,0.4703341790684577,0.4703341790684577,0.13064838307457158,0.13064838307457158,0.13064838307457158,0.13064838307457158,0.0,-0.8999999846476551,0.007997268093781856,-0.0007997268093781854,335.34037417571864
2017/08/23/12:22:11.426040,-0.215,-0.011,-0.196,-0.237,0.122,-0.151,2017/08/23/12:22:11.424726,-0.01569064,-9.83803128,0.07060788,0.001047198,0.031764992,0.00418879,0.1042,0.3327,0.2876,2017/08/23/12:22:11.422489,22.74520363,37.86626208,0.219437,24.614859370189887,10,0.00020432270598275243,0.00034015686381602586,0.7750123611917425,0.7750123611917425,0.2152812114421507,0.2152812114421507,0.2152812114421507,0.2152812114421507,0.0,0.23999998826660413,-0.0015994536187563708,0.007197541284403669,342.7172094676529
2017/08/23/12:22:11.677062,-0.169,0.074,-0.176,-0.185,0.142,-0.147,2017/08/23/12:22:11.676748,-0.08629852,-9.75957808,0.01569064,0.002443461,0.019547688,0.02443461,0.1037,0.332,0.2875,2017/08/23/12:22:11.666920,22.81186282,37.84769689,0.252022,24.866881370189887,10,0.00020492151293568093,0.0003399900906395976,0.6641682919260751,0.6641682919260751,0.18449119220168753,0.18449119220168753,0.18449119220168753,0.18449119220168753,0.0,1.4000000270481563,-0.00879699490316004,0.0015994536187563708,344.4369970286489
2017/08/23/12:22:11.896406,-0.054,0.204,-0.211,-0.136,0.154,-0.157,2017/08/23/12:22:11.896017,-0.10983448,-9.6889702,-0.0392266,0.0,0.01012291,0.018151424,0.1035,0.3322,0.2879,2017/08/23/12:22:11.910448,22.87432307,37.84110867,0.219269,25.086150370189888,10,0.00020548260034135825,0.00033993090792310454,0.7596938330669797,0.7596938330669797,0.2110260647408277,0.2110260647408277,0.2110260647408277,0.2110260647408277,0.0,1.0399999873524708,-0.011196175331294597,-0.003998634046890928,353.9787854201295
2017/08/23/12:22:12.109042,-0.023,0.201,-0.198,-0.109,0.159,-0.178,2017/08/23/12:22:12.107453,-0.10983448,-9.65758892,-0.00784532,0.0,0.003490659,0.002792527,0.1031,0.332,0.2861,2017/08/23/12:22:12.106461,22.91815553,37.845337,0.211436,25.297586370189887,10,0.00020587635222781172,0.00033996889148401005,0.7283219068516339,0.7283219068516339,0.20231164079212052,0.20231164079212052,0.20231164079212052,0.20231164079212052,0.0,0.16000001127632923,-0.011196175331294597,-0.0007997268093781854,5.510029631462297
2017/08/23/12:22:12.332406,-0.03,0.216,-0.232,-0.051,0.202,-0.203,2017/08/23/12:22:12.334970,-0.25105024,-9.62620764,0.04707192,-0.002094395,-0.000698132,-0.017104227,0.103,0.3317,0.2875,2017/08/23/12:22:12.314491,22.9583627,37.85381609,0.227517,25.525103370189886,10,0.00020623753772906935,0.0003400450600970176,0.7850641757206859,0.7850641757206859,0.21807338214463495,0.21807338214463495,0.21807338214463495,0.21807338214463495,0.0,-0.9800000189337095,-0.025591257900101933,0.0047983608562691136,11.908336814932351
2017/08/23/12:22:12.550871,0.018,0.209,-0.221,-0.035,0.187,-0.24,2017/08/23/12:22:12.554212,-0.1569064,-9.610517,0.06276256,-0.005585054,-0.002094395,-0.05550147,0.1023,0.3319,0.2882,2017/08/23/12:22:12.542497,23.00869564,37.87678888,0.219242,25.744345370189887,10,0.00020668968415379086,0.00034025142723679484,0.7551852752801792,0.7551852752801792,0.20977368757782755,0.20977368757782755,0.20977368757782755,0.20977368757782755,0.0,-3.179999987771953,-0.01599453618756371,0.006397814475025483,24.532743819813717
2017/08/23/12:22:12.805933,-0.046,0.087,-0.299,0.021,0.191,-0.276,2017/08/23/12:22:12.806331,-0.0392266,-9.54775444,0.0784532,-0.00837758,-0.002792527,-0.054454273,0.0988,0.3333,0.2886,2017/08/23/12:22:12.786505,23.05164147,37.90058281,0.252119,25.996464370189887,10,0.00020707547134387352,0.0003404651707689544,0.35428463133475036,0.35428463133475036,0.09841239759298621,0.09841239759298621,0.09841239759298621,0.09841239759298621,0.0,-3.1200000193531916,-0.003998634046890928,0.007997268093781856,28.988433380137387
2017/08/23/12:22:13.018422,-0.05,0.147,-0.288,-0.026,0.187,-0.302,2017/08/23/12:22:13.017521,0.07060788,-9.58698104,0.06276256,-0.007330383,-0.005934119,-0.038746309,0.0939,0.3329,0.2887,2017/08/23/12:22:13.030462,23.08464192,37.93561677,0.21119,26.207654370189886,10,0.00020737191807402084,0.0003407798847466763,0.5589746326981216,0.5589746326981216,0.15527073130503377,0.15527073130503377,0.15527073130503377,0.15527073130503377,0.0,-2.219999977409757,0.007197541284403669,0.006397814475025483,46.71202870564405
2017/08/23/12:22:13.243779,0.031,0.082,-0.311,-0.071,0.195,-0.334,2017/08/23/12:22:13.245437,0.08629852,-9.63405296,0.10198916,-0.006283185,-0.009424778,-0.014660766,0.0906,0.3305,0.2889,2017/08/23/12:22:13.226609,23.11498649,37.96166518,0.227916,26.435570370189886,10,0.0002076445067373338,0.0003410138805246137,0.3155908743927809,0.3155908743927809,0.08766413177577247,0.08766413177577247,0.08766413177577247,0.08766413177577247,0.0,-0.8400000162288939,0.00879699490316004,0.01039644852191641,40.64347753946661
2017/08/23/12:22:13.460693,-0.063,-0.003,-0.316,-0.057,0.189,-0.37,2017/08/23/12:22:13.464423,0.14906108,-9.82234064,0.09414384,-0.005934119,-0.015009832,0.024783675,0.0873,0.3282,0.2957,2017/08/23/12:22:13.470467,23.16128403,37.98289226,0.218986,26.654556370189887,10,0.00020806040271289977,0.000341204565756378,0.2270569972495893,0.2270569972495893,0.06307138812488591,0.06307138812488591,0.06307138812488591,0.06307138812488591,0.0,1.4199999783238906,0.015194809378185525,0.009596721712538227,24.631105998495894
2017/08/23/12:22:13.675666,-0.039,0.136,-0.306,-0.078,0.209,-0.375,2017/08/23/12:22:13.676096,-0.21966896,-9.8458766,0.13337044,-0.008028515,-0.013962634,0.035255651,0.0899,0.3269,0.2978,2017/08/23/12:22:13.666597,23.19491699,38.00440779,0.211673,26.866229370189888,10,0.00020836253135106,0.00034139784216672656,0.5093332111692699,0.5093332111692699,0.1414814475470194,0.1414814475470194,0.1414814475470194,0.1414814475470194,0.0,2.02000000628618,-0.022392350662589194,0.013595355759429153,32.60768260220857
2017/08/23/12:22:13.927060,-0.137,0.29,-0.286,-0.122,0.207,-0.377,2017/08/23/12:22:13.927915,-0.13337044,-9.75173276,0.12552512,-0.005235988,-0.009075712,-0.001396263,0.0953,0.3275,0.293,2017/08/23/12:22:13.910468,23.24355541,38.02686847,0.251819,27.11804837018989,10,0.00020879945571325906,0.0003415996089651455,1.1546351111931423,1.1546351111931423,0.3207319753314284,0.3207319753314284,0.3207319753314284,0.3207319753314284,0.0,-0.07999997699027486,-0.013595355759429153,0.012795628950050967,24.78696627453535
2017/08/23/12:22:14.134301,-0.18,0.231,-0.288,-0.152,0.22,-0.359,2017/08/23/12:22:14.130854,-0.1176798,-9.83018596,0.07060788,-0.006283185,-0.007330383,-0.041887902,0.0961,0.3285,0.2939,2017/08/23/12:22:14.114475,23.28933525,38.03884676,0.202939,27.32098737018989,10,0.00020921070113187208,0.00034170721128278837,1.0542592470545376,1.0542592470545376,0.2928497908484826,0.2928497908484826,0.2928497908484826,0.2928497908484826,0.0,-2.3999999972576,-0.011995902140672782,0.007197541284403669,14.662726468471899
2017/08/23/12:22:14.349013,-0.241,0.064,-0.241,-0.176,0.209,-0.35,2017/08/23/12:22:14.350406,0.0784532,-9.8458766,0.10983448,-0.003839724,-0.006632251,-0.053058009,0.0925,0.3291,0.2905,2017/08/23/12:22:14.350485,23.35047737,38.04934647,0.219552,27.54053937018989,10,0.00020975994762845849,0.00034180153135106,0.8976713875355502,0.8976713875355502,0.2493531632043195,0.2493531632043195,0.2493531632043195,0.2493531632043195,0.0,-3.0399999850671375,0.007997268093781856,0.011196175331294597,9.744149280112937
2017/08/23/12:22:14.567909,-0.111,0.214,-0.232,-0.177,0.23,-0.328,2017/08/23/12:22:14.569853,0.196133,-9.90863916,0.07060788,0.001047198,-0.006632251,-0.034906585,0.0875,0.3271,0.2954,2017/08/23/12:22:14.550574,23.40401833,38.05248141,0.219447,27.75998637018989,10,0.00021024091205533595,0.00034182969286740926,0.8678688380164367,0.8678688380164367,0.24107467722678796,0.24107467722678796,0.24107467722678796,0.24107467722678796,0.0,-1.9999999977146665,0.019993170234454637,0.007197541284403669,3.3509669297721025
2017/08/23/12:22:14.788292,-0.24,0.124,-0.285,-0.23,0.253,-0.298,2017/08/23/12:22:14.789088,0.2353596,-9.9243298,0.03138128,0.004886922,-0.007679449,-0.019198622,0.0879,0.3295,0.2899,2017/08/23/12:22:14.786445,23.47168284,38.0615808,0.219235,27.97922137018989,10,0.00021084874991016887,0.0003419114337046353,0.9725065346824153,0.9725065346824153,0.2701407040784487,0.2701407040784487,0.2701407040784487,0.2701407040784487,0.0,-1.1000000130670116,0.023991804281345563,0.0031989072375127416,7.659074350397679
2017/08/23/12:22:15.045851,-0.189,0.117,-0.283,-0.217,0.229,-0.271,2017/08/23/12:22:15.049208,0.392266,-9.86941256,0.03138128,0.009424778,-0.00418879,0.010821041,0.0895,0.3303,0.2903,2017/08/23/12:22:15.030472,23.55365716,38.0652427,0.26012,28.23934137018989,10,0.00021158513438735178,0.0003419443289615523,0.8002209694828049,0.8002209694828049,0.22228360263411245,0.22228360263411245,0.22228360263411245,0.22228360263411245,0.0,0.6199999792380239,0.039986340468909275,0.0031989072375127416,2.5577768806903705
2017/08/23/12:22:15.258978,-0.14,0.272,-0.234,-0.271,0.231,-0.258,2017/08/23/12:22:15.260642,0.2745862,-9.90079384,0.02353596,0.01012291,-0.000349066,0.025132741,0.0902,0.3301,0.2892,2017/08/23/12:22:15.278600,23.62961486,38.06764377,0.211434,28.45077537018989,10,0.00021226747089471795,0.0003419658980416816,1.1012940751679363,1.1012940751679363,0.3059150208799823,0.3059150208799823,0.3059150208799823,0.3059150208799823,0.0,1.439999986895404,0.027990438328236493,0.0023991804281345568,1.8105522278677995
2017/08/23/12:22:15.480897,-0.159,0.046,-0.23,-0.261,0.231,-0.237,2017/08/23/12:22:15.480988,0.196133,-9.8458766,-0.02353596,0.011519173,0.012566371,0.033859387,0.0899,0.3301,0.2882,2017/08/23/12:22:15.470649,23.70257722,38.06001839,0.220346,28.67112137018989,10,0.0002129228999281351,0.00034189739840100616,0.5958734093748437,0.5958734093748437,0.16552039149301212,0.16552039149301212,0.16552039149301212,0.16552039149301212,0.0,1.9399999720001257,0.019993170234454637,-0.0023991804281345568,354.0336121815906
2017/08/23/12:22:15.698604,-0.266,0.156,-0.229,-0.214,0.215,-0.216,2017/08/23/12:22:15.699318,0.1569064,-9.8458766,-0.04707192,0.01012291,0.018151424,0.061086524,0.0965,0.3324,0.288,2017/08/23/12:22:15.714585,23.78686478,38.05601642,0.21833,28.889451370189892,10,0.00021368006449874234,0.0003418614482572763,1.1101316678664745,1.1101316678664745,0.30836990774068734,0.30836990774068734,0.30836990774068734,0.30836990774068734,0.0,3.500000010324612,0.01599453618756371,-0.0047983608562691136,357.2816401470252
2017/08/23/12:22:15.918792,-0.189,0.098,-0.209,-0.216,0.18,-0.197,2017/08/23/12:22:15.918771,0.04707192,-9.80665,0.0,0.007679449,0.017104227,0.089360858,0.0993,0.332,0.2866,2017/08/23/12:22:15.910643,23.84782086,38.05697276,0.219453,29.108904370189894,10,0.00021422763977721883,0.00034187003916636723,0.7664280788175757,0.7664280788175757,0.2128966885604377,0.2128966885604377,0.2128966885604377,0.2128966885604377,0.0,5.120000017067858,0.0047983608562691136,0.0,0.8988397986136836
2017/08/23/12:22:16.176081,-0.145,0.091,-0.262,-0.17,0.194,-0.193,2017/08/23/12:22:16.178682,-0.29812216,-9.77526872,0.01569064,0.003141593,0.017802358,0.058992129,0.1028,0.3327,0.2857,2017/08/23/12:22:16.194560,23.93301945,38.05326152,0.259911,29.368815370189893,10,0.0002149929882321236,0.0003418367006827165,0.6162838307143876,0.6162838307143876,0.17118995297621878,0.17118995297621878,0.17118995297621878,0.17118995297621878,0.0,3.3800000161913095,-0.03038961875637105,0.0015994536187563708,357.5057797256349
2017/08/23/12:22:16.388624,-0.077,0.143,-0.19,-0.176,0.173,-0.203,2017/08/23/12:22:16.390201,-0.40011132,-9.73604212,0.03138128,-0.001396263,0.018849556,0.009075712,0.1048,0.333,0.2863,2017/08/23/12:22:16.398509,23.98408652,38.05741491,0.211519,29.58033437018989,10,0.0002154517294286741,0.00034187401104922744,0.5846869931852426,0.5846869931852426,0.1624130536625674,0.1624130536625674,0.1624130536625674,0.1624130536625674,0.0,0.5199999936762354,-0.04078606727828746,0.0031989072375127416,4.6497492502473365
2017/08/23/12:22:16.606212,-0.198,-0.022,-0.229,-0.111,0.195,-0.206,2017/08/23/12:22:16.609614,-0.28243152,-9.71250616,0.01569064,-0.005934119,0.014660766,-0.04712389,0.1055,0.333,0.2864,2017/08/23/12:22:16.590419,24.03300432,38.05639994,0.219413,29.79974737018989,10,0.00021589116349263386,0.0003418648934602946,0.7171865029404835,0.7171865029404835,0.19921847303902318,0.19921847303902318,0.19921847303902318,0.19921847303902318,0.0,-2.7000000112387452,-0.028790165137614676,0.0015994536187563708,358.81137020733775
2017/08/23/12:22:16.810499,-0.095,0.028,-0.183,-0.092,0.184,-0.221,2017/08/23/12:22:16.812578,-0.20397832,-9.68112488,0.08629852,-0.006283185,0.011519173,-0.065973446,0.1001,0.333,0.2868,2017/08/23/12:22:16.794413,24.07576603,38.06879542,0.202964,30.002711370189893,10,0.0002162752967121811,0.00034197624344232844,0.35654542487598967,0.35654542487598967,0.09904039579888602,0.09904039579888602,0.09904039579888602,0.09904039579888602,0.0,-3.780000015734243,-0.02079289704383282,0.00879699490316004,16.1654650486907
2017/08/23/12:22:17.021823,-0.07,0.182,-0.241,-0.082,1.066,-0.5,2017/08/23/12:22:17.023954,-0.0392266,-9.62620764,0.10983448,-0.006632251,0.005235988,-0.033859387,0.095,0.3329,0.287,2017/08/23/12:22:17.030434,24.12652093,38.08314469,0.211376,30.214087370189894,10,0.00021673123365073663,0.000342105144538268,0.7019907691700796,0.7019907691700796,0.19499743588057766,0.19499743588057766,0.19499743588057766,0.19499743588057766,0.0,-1.9399999720001257,-0.003998634046890928,0.011196175331294597,15.786496372666006
2017/08/23/12:22:17.248505,0.062,0.212,-0.224,-0.076,0.184,-0.276,2017/08/23/12:22:17.251426,-0.14121576,-9.6497436,0.0784532,-0.004537856,-0.003839724,0.009773844,0.094,0.3324,0.2875,2017/08/23/12:22:17.266438,24.18720874,38.09616908,0.227472,30.441559370189893,10,0.0002172763990298239,0.0003422221440891125,0.7951682086200378,0.7951682086200378,0.2208800579500105,0.2208800579500105,0.2208800579500105,0.2208800579500105,0.0,0.5600000108192627,-0.014395082568807338,0.007997268093781856,12.11268202364359
2017/08/23/12:22:17.479202,-0.057,0.242,-0.243,-0.073,0.179,-0.306,2017/08/23/12:22:17.479098,-0.03138128,-9.66543424,0.08629852,-0.00418879,-0.002792527,0.014660766,0.0934,0.3306,0.2937,2017/08/23/12:22:17.470587,24.21816312,38.1138338,0.227672,30.66923137018989,10,0.00021755446568451313,0.00034238082824290334,0.8950399320700725,0.8950399320700725,0.24862220335279792,0.24862220335279792,0.24862220335279792,0.24862220335279792,0.0,0.8400000162288939,-0.0031989072375127416,0.00879699490316004,29.712083830970336
2017/08/23/12:22:17.695365,-0.191,0.215,-0.317,-0.093,0.185,-0.322,2017/08/23/12:22:17.698442,-0.18044236,-9.6497436,0.12552512,-0.006283185,-0.003490659,0.026529005,0.0983,0.3341,0.2883,2017/08/23/12:22:17.706429,24.25953305,38.13251625,0.219344,30.88857537018989,10,0.00021792609638878908,0.0003425486547790155,1.0353114314060288,1.0353114314060288,0.28758650872389685,0.28758650872389685,0.28758650872389685,0.28758650872389685,0.0,1.5200000211814586,-0.018393716615698264,0.012795628950050967,24.303693181293198
2017/08/23/12:22:17.906507,-0.069,0.165,-0.34,-0.105,0.179,-0.336,2017/08/23/12:22:17.909782,-0.26674088,-9.86156724,0.14121576,-0.004886922,-0.002094395,0.003141593,0.0924,0.3285,0.2944,2017/08/23/12:22:17.906498,24.29592381,38.14696722,0.21134,31.09991537018989,10,0.00021825299865253325,0.00034267846945742006,0.6438466898260796,0.6438466898260796,0.17884630272946656,0.17884630272946656,0.17884630272946656,0.17884630272946656,0.0,0.18000001984784283,-0.027190711518858306,0.014395082568807338,21.658297871547987
2017/08/23/12:22:18.109779,-0.039,0.127,-0.321,-0.117,0.178,-0.345,2017/08/23/12:22:18.113199,-0.22751428,-9.78311404,0.13337044,-0.002094395,0.000349066,-0.042236968,0.0944,0.3307,0.2908,2017/08/23/12:22:18.110431,24.33311291,38.15785847,0.203417,31.303332370189892,10,0.00021858707249371184,0.0003427763067732663,0.4782718892011112,0.4782718892011112,0.13285330255586422,0.13285330255586422,0.13285330255586422,0.13285330255586422,0.0,-2.4200000058291136,-0.02319207747196738,0.013595355759429153,16.32326819512544
2017/08/23/12:22:18.320606,-0.228,0.151,-0.345,-0.152,0.188,-0.341,2017/08/23/12:22:18.324297,0.18044236,-9.78311404,0.10198916,0.000698132,-0.002792527,-0.056548668,0.0844,0.3267,0.2962,2017/08/23/12:22:18.306452,24.37214549,38.16617565,0.211098,31.514430370189892,10,0.00021893770652173914,0.00034285102093065036,0.9844864651177283,0.9844864651177283,0.2734684625327023,0.2734684625327023,0.2734684625327023,0.2734684625327023,0.0,-3.240000013486494,0.018393716615698264,0.01039644852191641,12.028856813078711
2017/08/23/12:22:18.566053,-0.242,0.201,-0.289,-0.178,0.169,-0.317,2017/08/23/12:22:18.568022,0.04707192,-9.91648448,0.16475172,0.001047198,-0.006632251,-0.020245819,0.0777,0.3255,0.3003,2017/08/23/12:22:18.582485,24.43834371,38.17422562,0.243725,31.758155370189893,10,0.00021953237252964427,0.0003429233347107438,1.1325133111800496,1.1325133111800496,0.3145870308833471,0.3145870308833471,0.3145870308833471,0.3145870308833471,0.0,-1.1599999814857729,0.0047983608562691136,0.016794262996941894,6.93335538307587
2017/08/23/12:22:18.769129,-0.214,0.105,-0.27,-0.192,0.184,-0.284,2017/08/23/12:22:18.771210,-0.00784532,-10.002783,0.12552512,-0.00418879,-0.00418879,0.020594885,0.0757,0.3235,0.3035,2017/08/23/12:22:18.786467,24.48611628,38.17138758,0.203188,31.961343370189894,10,0.0002199615188645347,0.0003428978402802731,0.8581376113421436,0.8581376113421436,0.238371558706151,0.238371558706151,0.238371558706151,0.238371558706151,0.0,1.1799999900572864,-0.0007997268093781854,0.012795628950050967,356.60020750681355
2017/08/23/12:22:18.985338,-0.279,0.104,-0.217,-0.212,0.176,-0.233,2017/08/23/12:22:18.982531,-0.04707192,-10.002783,0.10983448,-0.005585054,-0.004537856,0.021293017,0.0791,0.3245,0.3021,2017/08/23/12:22:18.978529,24.53920864,38.16946595,0.211321,32.17266437018989,10,0.00022043845346748111,0.00034288057806324115,1.0719117127823543,1.0719117127823543,0.29775325355065396,0.29775325355065396,0.29775325355065396,0.29775325355065396,0.0,1.2200000072003137,-0.0047983608562691136,0.011196175331294597,357.9271358720148
2017/08/23/12:22:19.192651,-0.205,0.192,-0.163,-0.217,0.182,-0.178,2017/08/23/12:22:19.193990,0.02353596,-10.06554556,0.05491724,-0.010821041,-0.003141593,-0.015358897,0.0785,0.3228,0.3042,2017/08/23/12:22:19.182444,24.59421528,38.16286449,0.211459,32.38412337018989,10,0.0002209325842615882,0.00034282127641034854,1.011138684849907,1.011138684849907,0.28087185690275196,0.28087185690275196,0.28087185690275196,0.28087185690275196,0.0,-0.8799999760761416,0.0023991804281345568,0.005598087665647298,353.1565455951085
2017/08/23/12:22:19.400910,-0.163,0.229,-0.159,-0.22,0.187,-0.134,2017/08/23/12:22:19.397062,0.1176798,-10.03416428,0.01569064,-0.017453293,-0.000698132,-0.023736478,0.0778,0.3222,0.3051,2017/08/23/12:22:19.382453,24.65216068,38.15589177,0.203072,32.58719537018989,10,0.00022145311426518147,0.00034275863968738767,1.0119138303235113,1.0119138303235113,0.28108717508986425,0.28108717508986425,0.28108717508986425,0.28108717508986425,0.0,-1.3600000099051293,0.011995902140672782,0.0015994536187563708,353.1384418939453
2017/08/23/12:22:19.634526,-0.3,0.133,-0.08,-0.221,0.195,-0.083,2017/08/23/12:22:19.632610,0.1569064,-9.98709236,-0.04707192,-0.02443461,0.001047198,-0.012566371,0.0738,0.3201,0.3078,2017/08/23/12:22:19.654433,24.73518416,38.15125231,0.235548,32.82274337018989,10,0.00022219892346388788,0.00034271696289974845,1.1813760789858578,1.1813760789858578,0.3281600219405161,0.3281600219405161,0.3281600219405161,0.3281600219405161,0.0,-0.7200000220955918,0.01599453618756371,-0.0047983608562691136,356.80156385675184
2017/08/23/12:22:19.858081,-0.171,0.046,-0.017,-0.221,0.194,-0.038,2017/08/23/12:22:19.860115,0.18044236,-9.94786576,-0.13337044,-0.034557519,0.002792527,0.017453293,0.0748,0.3194,0.3085,2017/08/23/12:22:19.858421,24.79688298,38.14593573,0.227505,33.05024837018989,10,0.00022275317085878547,0.0003426692034674811,0.637484682168913,0.637484682168913,0.1770790783802536,0.1770790783802536,0.1770790783802536,0.1770790783802536,0.0,1.0000000275052232,0.018393716615698264,-0.013595355759429153,355.0749952279395
2017/08/23/12:22:20.063347,-0.116,0.107,-0.011,-0.182,0.199,0.004,2017/08/23/12:22:20.063327,0.14121576,-9.8458766,-0.22751428,-0.040840704,0.003839724,0.035953783,0.0754,0.316,0.3109,2017/08/23/12:22:20.062448,24.85912244,38.14104062,0.203212,33.25346037018989,10,0.00022331227488321955,0.000342625230147323,0.5681274504897647,0.5681274504897647,0.1578131806916013,0.1578131806916013,0.1578131806916013,0.1578131806916013,0.0,2.0600000234292075,0.014395082568807338,-0.02319207747196738,355.5029658845035
2017/08/23/12:22:20.272240,-0.161,0.06,0.004,-0.157,0.21,0.034,2017/08/23/12:22:20.274615,0.07060788,-9.79095936,-0.32165812,-0.049567351,0.001047198,0.057246799,0.0793,0.3132,0.3148,2017/08/23/12:22:20.258475,24.91522839,38.14356205,0.211288,33.464748370189895,10,0.0002238162809019044,0.0003426478804347826,0.6185403462992533,0.6185403462992533,0.17181676286090367,0.17181676286090367,0.17181676286090367,0.17181676286090367,0.0,3.2799999733337417,0.007197541284403669,-0.032788799184505606,2.573170176410242
2017/08/23/12:22:20.480151,-0.101,0.172,-0.003,-0.139,0.22,0.052,2017/08/23/12:22:20.478101,-0.14121576,-9.75957808,-0.42364728,-0.05550147,0.000349066,0.06143559,0.0827,0.31,0.3169,2017/08/23/12:22:20.490427,24.98279297,38.15217735,0.203486,33.66823437018989,10,0.00022442322107438015,0.00034272527263744164,0.7180623928322664,0.7180623928322664,0.19946177578674065,0.19946177578674065,0.19946177578674065,0.19946177578674065,0.0,3.520000018896125,-0.014395082568807338,-0.04318524770642202,7.266689398892596
2017/08/23/12:22:20.688556,-0.107,0.169,0.0,-0.104,0.218,0.048,2017/08/23/12:22:20.688916,-0.21966896,-9.7281968,-0.54132708,-0.06143559,-0.000698132,0.030717795,0.0854,0.3061,0.3209,2017/08/23/12:22:20.686470,25.03657513,38.16423258,0.210815,33.87904937018989,10,0.0002249063522278117,0.00034283356611570245,0.720089994375703,0.720089994375703,0.20002499843769528,0.20002499843769528,0.20002499843769528,0.20002499843769528,0.0,1.7600000094480626,-0.022392350662589194,-0.055181149847094796,12.633978601275093
2017/08/23/12:22:20.939548,-0.038,0.164,0.008,-0.09,0.23,0.032,2017/08/23/12:22:20.941235,-0.196133,-9.610517,-0.6668522,-0.064577182,-0.004886922,-0.025830873,0.0874,0.302,0.3247,2017/08/23/12:22:20.930485,25.09554445,38.18140039,0.252319,34.13136837018989,10,0.0002254360802191879,0.0003429877864714337,0.6060415827317462,0.6060415827317462,0.16834488409215173,0.16834488409215173,0.16834488409215173,0.16834488409215173,0.0,-1.4800000040384313,-0.019993170234454637,-0.06797677879714577,16.231926960667895
2017/08/23/12:22:21.153162,-0.04,0.245,-0.034,-0.046,0.239,0.003,2017/08/23/12:22:21.152291,-0.16475172,-9.59482636,-0.80022264,-0.063180919,-0.010821041,-0.063879051,0.085,0.2976,0.3295,2017/08/23/12:22:21.134457,25.14039482,38.2004534,0.211056,34.34242437018989,10,0.00022583897610492276,0.00034315894178943586,0.8936777942860614,0.8936777942860614,0.24824383174612816,0.24824383174612816,0.24824383174612816,0.24824383174612816,0.0,-3.660000021600941,-0.016794262996941894,-0.08157213455657492,23.016405208346416
2017/08/23/12:22:21.362400,-0.01,0.125,-0.066,-0.032,0.247,-0.028,2017/08/23/12:22:21.363605,-0.0392266,-9.50852784,-0.88652116,-0.061784656,-0.012915436,-0.06981317,0.0834,0.295,0.3318,2017/08/23/12:22:21.370628,25.19061237,38.22869392,0.211314,34.55373837018989,10,0.00022629008596837945,0.0003434126295364714,0.4514377033434403,0.4514377033434403,0.12539936203984453,0.12539936203984453,0.12539936203984453,0.12539936203984453,0.0,-3.999999995429333,-0.003998634046890928,-0.09036912945973496,29.351814561907236
2017/08/23/12:22:21.569657,-0.083,0.192,-0.018,-0.038,0.245,-0.069,2017/08/23/12:22:21.566744,0.05491724,-9.61836232,-1.01204628,-0.056548668,-0.013613568,-0.055850536,0.08,0.2916,0.3343,2017/08/23/12:22:21.566502,25.22737496,38.25853266,0.203139,34.75687737018989,10,0.00022662032842256556,0.00034368067427236794,0.7530198403760687,0.7530198403760687,0.20917217788224132,0.20917217788224132,0.20917217788224132,0.20917217788224132,0.0,-3.199999996343467,0.005598087665647298,-0.10316475840978594,39.06487187085672
2017/08/23/12:22:21.777968,-0.071,0.241,-0.108,-0.049,0.233,-0.105,2017/08/23/12:22:21.778042,0.14906108,-9.61836232,-1.06696352,-0.05131268,-0.012217305,-0.017802358,0.076,0.2862,0.3414,2017/08/23/12:22:21.770426,25.2631688,38.28703155,0.211298,34.96817537018989,10,0.00022694186848724396,0.0003439366829859864,0.9044673128422055,0.9044673128422055,0.25124092023394595,0.25124092023394595,0.25124092023394595,0.25124092023394595,0.0,-1.0199999787809573,0.015194809378185525,-0.10876284607543323,38.52664138794849
2017/08/23/12:22:22.016432,0.044,0.065,-0.082,-0.083,0.232,-0.13,2017/08/23/12:22:22.014019,0.04707192,-9.63405296,-1.16110736,-0.04712389,-0.009773844,0.018849556,0.0786,0.2832,0.3447,2017/08/23/12:22:22.002461,25.30748433,38.31570937,0.235977,35.20415237018989,10,0.00022733995984549048,0.00034419429904779014,0.2825713361259419,0.2825713361259419,0.07849203781276162,0.07849203781276162,0.07849203781276162,0.07849203781276162,0.0,1.080000004495498,0.0047983608562691136,-0.11835956778797144,32.90803636152903
2017/08/23/12:22:22.231934,-0.182,0.093,-0.101,-0.116,0.213,-0.139,2017/08/23/12:22:22.233033,-0.00784532,-9.65758892,-1.24740588,-0.039793507,-0.005934119,0.011519173,0.079,0.2793,0.3481,2017/08/23/12:22:22.246562,25.35503028,38.34008209,0.219014,35.42316637018989,10,0.00022776707042759613,0.00034441324191519947,0.7357839900405554,0.7357839900405554,0.20438444167793204,0.20438444167793204,0.20438444167793204,0.20438444167793204,0.0,0.6599999963810511,-0.0007997268093781854,-0.1271565626911315,27.140312750222552
2017/08/23/12:22:22.440436,-0.234,0.087,-0.056,-0.143,0.204,-0.143,2017/08/23/12:22:22.444510,-0.0784532,-9.71250616,-1.31801376,-0.033859387,-0.005235988,0.0,0.0773,0.2756,0.3512,2017/08/23/12:22:22.442518,25.39448192,38.35339533,0.211477,35.63464337018989,10,0.00022812146891843335,0.00034453283623787277,0.8987391167630349,0.8987391167630349,0.24964975465639858,0.24964975465639858,0.24964975465639858,0.24964975465639858,0.0,0.0,-0.007997268093781856,-0.13435410397553516,18.647337269572233
2017/08/23/12:22:22.649441,-0.083,0.155,-0.067,-0.175,0.195,-0.135,2017/08/23/12:22:22.647521,0.01569064,-9.75957808,-1.38077632,-0.0286234,-0.003141593,-0.018849556,0.0783,0.2738,0.3528,2017/08/23/12:22:22.638571,25.43650651,38.36083195,0.203011,35.83765437018989,10,0.00022849898050664752,0.0003445996402263744,0.6329655914818751,0.6329655914818751,0.175823775411632,0.175823775411632,0.175823775411632,0.175823775411632,0.0,-1.080000004495498,0.0015994536187563708,-0.14075191845056065,10.035103856060596
2017/08/23/12:22:22.863902,-0.254,0.108,-0.061,-0.198,0.18,-0.121,2017/08/23/12:22:22.866872,0.08629852,-9.82234064,-1.45922952,-0.019896753,-0.001396263,-0.030717795,0.0761,0.272,0.3553,2017/08/23/12:22:22.882429,25.49101935,38.36436046,0.219351,36.05700537018989,10,0.00022898867544017247,0.0003446313372260151,0.9936260866140744,0.9936260866140744,0.2760072462816873,0.2760072462816873,0.2760072462816873,0.2760072462816873,0.0,-1.7600000094480626,0.00879699490316004,-0.1487491865443425,3.7034778430364383
2017/08/23/12:22:23.074131,-0.211,0.095,-0.021,-0.232,0.166,-0.103,2017/08/23/12:22:23.070213,0.14121576,-9.80665,-1.4906108,-0.012217305,-0.002094395,-0.02443461,0.0754,0.2717,0.3558,2017/08/23/12:22:23.074455,25.53744911,38.35887285,0.203341,36.26034637018989,10,0.000229405759162774,0.00034458204141214516,0.8330403111494665,0.8330403111494665,0.23140008643040735,0.23140008643040735,0.23140008643040735,0.23140008643040735,0.0,-1.4000000270481563,0.014395082568807338,-0.15194809378185525,353.2593882717472
2017/08/23/12:22:23.319014,-0.168,0.004,-0.095,-0.25,0.154,-0.077,2017/08/23/12:22:23.322011,0.24320492,-9.62620764,-1.5298374,0.001396263,-0.003490659,0.0,0.0828,0.2761,0.3466,2017/08/23/12:22:23.322463,25.59811042,38.34821598,0.251798,36.512144370189894,10,0.00022995068648939995,0.00034448630955803087,0.6049714042828801,0.6049714042828801,0.16804761230080004,0.16804761230080004,0.16804761230080004,0.16804761230080004,0.0,0.0,0.02479153109072375,-0.15594672782874616,350.0360552783959
2017/08/23/12:22:23.538454,-0.336,0.106,-0.133,-0.254,0.159,-0.077,2017/08/23/12:22:23.541541,0.36873004,-9.75957808,-1.53768272,0.012915436,-0.005934119,0.021293017,0.0808,0.2748,0.3492,2017/08/23/12:22:23.554570,25.66139032,38.33264893,0.21953,36.73167437018989,10,0.00023051913690262305,0.00034434646900826445,1.2683653732265006,1.2683653732265006,0.352323714785139,0.352323714785139,0.352323714785139,0.352323714785139,0.0,1.2200000072003137,0.03758716004077472,-0.15674645463812437,346.1794943299492
2017/08/23/12:22:23.743431,-0.185,0.149,-0.082,-0.246,0.135,-0.066,2017/08/23/12:22:23.744644,0.24320492,-9.79095936,-1.54552804,0.02268928,-0.00418879,0.043982297,0.0803,0.2744,0.3512,2017/08/23/12:22:23.730027,25.71458694,38.31575431,0.203103,36.93477737018989,10,0.00023099700808480058,0.0003441947027488322,0.8551496711102683,0.8551496711102683,0.23754157530840786,0.23754157530840786,0.23754157530840786,0.23754157530840786,0.0,2.5199999913909017,0.02479153109072375,-0.15754618144750254,342.38076491980735
2017/08/23/12:22:23.951607,-0.228,0.102,-0.059,-0.24,0.134,-0.048,2017/08/23/12:22:23.947912,0.10198916,-9.72035148,-1.45922952,0.027227136,-0.005585054,0.049567351,0.0855,0.2772,0.35,2017/08/23/12:22:23.966466,25.76970588,38.27945499,0.203268,37.13804537018989,10,0.00023149214768235717,0.0003438686219008264,0.8991932384087415,0.8991932384087415,0.24977589955798377,0.24977589955798377,0.24977589955798377,0.24977589955798377,0.0,2.840000013943561,0.01039644852191641,-0.1487491865443425,326.6325598660457
2017/08/23/12:22:24.160261,-0.232,0.19,-0.058,-0.227,0.135,-0.03,2017/08/23/12:22:24.159266,0.0392266,-9.74388744,-1.42784824,0.031764992,-0.002094395,0.023387412,0.088,0.2788,0.3457,2017/08/23/12:22:24.170798,25.82027135,38.26487936,0.211354,37.34939937018989,10,0.00023194638295005387,0.00034373768738771114,1.0795439036926662,1.0795439036926662,0.29987330658129613,0.29987330658129613,0.29987330658129613,0.29987330658129613,0.0,1.3400000013336157,0.003998634046890928,-0.14555027930682976,343.9202340614705
2017/08/23/12:22:24.397425,-0.126,0.032,-0.103,-0.203,0.132,-0.019,2017/08/23/12:22:24.395220,0.0784532,-9.79880468,-1.34154972,0.03281219,0.0,0.012217305,0.0839,0.2789,0.3466,2017/08/23/12:22:24.386567,25.87074623,38.26400111,0.235954,37.58535337018989,10,0.00023239980443765722,0.00034372979796981677,0.468,0.468,0.13,0.13,0.13,0.13,0.0,0.7000000135240781,0.007997268093781856,-0.1367532844036697,359.0031686824684
2017/08/23/12:22:24.623419,-0.096,0.137,-0.076,-0.17,0.137,-0.011,2017/08/23/12:22:24.622285,0.0,-9.79095936,-1.27094184,0.034557519,-0.003141593,0.025132741,0.0866,0.2821,0.3458,2017/08/23/12:22:24.638462,25.92623608,38.25102301,0.227065,37.812418370189896,10,0.00023289827596119294,0.00034361321424721523,0.6022338416263238,0.6022338416263238,0.16728717822953437,0.16728717822953437,0.16728717822953437,0.16728717822953437,0.0,1.439999986895404,0.0,-0.12955574311926607,346.83614576900436
2017/08/23/12:22:24.831018,-0.024,0.022,-0.069,-0.147,0.156,-0.008,2017/08/23/12:22:24.833550,0.0,-9.73604212,-1.16895268,0.031764992,-0.003141593,0.017802358,0.0847,0.2834,0.3435,2017/08/23/12:22:24.830435,25.9668559,38.24490448,0.211265,38.02368337018989,10,0.00023326316834351417,0.0003435582508084801,0.1172075082919179,0.1172075082919179,0.032557641192199414,0.032557641192199414,0.032557641192199414,0.032557641192199414,0.0,1.0199999787809573,0.0,-0.11915929459734964,351.43398179795287
2017/08/23/12:22:25.038585,0.09,0.182,-0.055,-0.13,0.16,-0.008,2017/08/23/12:22:25.036797,-0.07060788,-9.7281968,-1.10619012,0.028972466,-0.00418879,0.004537856,0.0871,0.2861,0.3414,2017/08/23/12:22:25.034436,26.00742163,38.24506989,0.203247,38.22693037018989,10,0.00023362757482932087,0.00034355973670499465,0.7309329928249237,0.7309329928249237,0.2030369424513677,0.2030369424513677,0.2030369424513677,0.2030369424513677,0.0,0.2599999968381177,-0.007197541284403669,-0.11276148012232415,0.23362681664051735
2017/08/23/12:22:25.252993,0.003,0.121,-0.071,-0.103,0.165,-0.008,2017/08/23/12:22:25.256119,-0.10198916,-9.74388744,-1.02773692,0.023387412,-0.001745329,0.001396263,0.0887,0.2877,0.3406,2017/08/23/12:22:25.270587,26.0573633,38.2480862,0.219322,38.44625237018989,10,0.000234076206431908,0.000343586832554797,0.4357338637287674,0.4357338637287674,0.12103718436910205,0.12103718436910205,0.12103718436910205,0.12103718436910205,0.0,0.07999997699027486,-0.01039644852191641,-0.10476421202854229,3.456275172842271
2017/08/23/12:22:25.459004,-0.082,0.163,-0.015,-0.083,0.181,0.0,2017/08/23/12:22:25.459339,-0.06276256,-9.75957808,-0.980665,0.01850049,-0.003839724,-0.001745329,0.0884,0.2902,0.3402,2017/08/23/12:22:25.466657,26.09334517,38.25660183,0.20322,38.64947237018989,10,0.00023439943559108874,0.0003436633294107079,0.6568693020685318,0.6568693020685318,0.18246369501903661,0.18246369501903661,0.18246369501903661,0.18246369501903661,0.0,-0.09999998556178846,-0.006397814475025483,-0.09996585117227319,13.314893424648606
2017/08/23/12:22:25.709619,-0.037,0.105,-0.072,-0.065,0.188,0.002,2017/08/23/12:22:25.711574,-0.14121576,-9.74388744,-0.93359308,0.013264502,-0.004537856,0.001047198,0.0881,0.2925,0.3388,2017/08/23/12:22:25.694636,26.14038504,38.2706258,0.252235,38.90170737018989,10,0.000234822,0.00034378930830039525,0.400782035525546,0.400782035525546,0.11132834320154054,0.11132834320154054,0.11132834320154054,0.11132834320154054,0.0,0.060000025714540786,-0.014395082568807338,-0.09516749031600406,16.600867705023003
2017/08/23/12:22:25.917076,-0.024,0.109,-0.045,-0.056,0.191,-0.002,2017/08/23/12:22:25.915101,-0.08629852,-9.7281968,-0.87083052,0.009424778,-0.005585054,-0.006981317,0.0893,0.2918,0.3374,2017/08/23/12:22:25.902505,26.17545442,38.28834982,0.203527,39.10523437018989,10,0.00023513703215954007,0.0003439485251527129,0.4017993529113754,0.4017993529113754,0.11161093136427094,0.11161093136427094,0.11161093136427094,0.11161093136427094,0.0,-0.39999999954293336,-0.00879699490316004,-0.0887696758409786,26.811975819714515
2017/08/23/12:22:26.119370,-0.12,0.174,-0.031,-0.06,0.211,-0.008,2017/08/23/12:22:26.117726,-0.0392266,-9.82234064,-0.8237586,0.002443461,-0.003839724,-0.010471976,0.0924,0.2954,0.3314,2017/08/23/12:22:26.106603,26.20980889,38.30745305,0.202625,39.30785937018989,10,0.000235445642202659,0.0003441201316025871,0.7609211260045288,0.7609211260045288,0.21136697944570243,0.21136697944570243,0.21136697944570243,0.21136697944570243,0.0,-0.6000000279622897,-0.003998634046890928,-0.08397131498470947,29.076791528185176
2017/08/23/12:22:26.331161,-0.038,0.1,-0.021,-0.065,0.216,0.002,2017/08/23/12:22:26.329007,-0.12552512,-9.75173276,-0.83160392,0.002443461,-0.004886922,-0.012217305,0.09,0.294,0.3323,2017/08/23/12:22:26.342576,26.2573039,38.32981594,0.211281,39.51914037018989,10,0.0002358722951850521,0.0003443210199425081,0.38511587866511043,0.38511587866511043,0.10697663296253067,0.10697663296253067,0.10697663296253067,0.10697663296253067,0.0,-0.7000000135240781,-0.012795628950050967,-0.08477104179408766,25.21326747637985
2017/08/23/12:22:26.539115,-0.061,0.076,0.004,-0.072,0.24,-0.002,2017/08/23/12:22:26.540226,-0.196133,-9.83018596,-0.80806796,0.005235988,-0.00418879,-0.035255651,0.0885,0.2951,0.3322,2017/08/23/12:22:26.538510,26.29789201,38.35089625,0.211219,39.73035937018989,10,0.00023623690271289976,0.0003445103867229608,0.35082918920751166,0.35082918920751166,0.09745255255764212,0.09745255255764212,0.09745255255764212,0.09745255255764212,0.0,-2.02000000628618,-0.019993170234454637,-0.0823718613659531,27.44608131706704
2017/08/23/12:22:26.774470,-0.077,0.288,0.037,-0.082,0.236,-0.011,2017/08/23/12:22:26.776180,0.0,-9.79880468,-0.81591328,0.005235988,-0.003141593,-0.033510322,0.0884,0.2958,0.3321,2017/08/23/12:22:26.782519,26.352088,38.37562022,0.235954,39.96631337018989,10,0.00023672375134746674,0.0003447324849083723,1.0732166975965292,1.0732166975965292,0.29811574933236923,0.29811574933236923,0.29811574933236923,0.29811574933236923,0.0,-1.920000020724392,0.0,-0.08317158817533128,24.522261072224687
2017/08/23/12:22:26.996486,-0.21,0.214,0.029,-0.093,0.24,-0.001,2017/08/23/12:22:26.995472,0.01569064,-9.83018596,-0.81591328,0.003141593,-0.001745329,-0.025132741,0.0884,0.2968,0.3328,2017/08/23/12:22:26.982611,26.39754876,38.39634028,0.219292,40.18560537018989,10,0.0002371321304347826,0.00034491861552281706,1.079375819629104,1.079375819629104,0.29982661656363996,0.29982661656363996,0.29982661656363996,0.29982661656363996,0.0,-1.439999986895404,0.0015994536187563708,-0.08317158817533128,24.502502564304102
2017/08/23/12:22:27.201653,-0.096,0.115,0.057,-0.113,0.246,0.004,2017/08/23/12:22:27.198402,0.02353596,-9.8851032,-0.77668668,0.003141593,0.000698132,-0.017453293,0.0879,0.2997,0.3287,2017/08/23/12:22:27.182564,26.44501855,38.41586208,0.20293,40.38853537018989,10,0.00023755855686309737,0.0003450939820337765,0.5392915352571371,0.5392915352571371,0.14980320423809365,0.14980320423809365,0.14980320423809365,0.14980320423809365,0.0,-1.0000000275052232,0.0023991804281345568,-0.07917295412844036,22.354759222001686
2017/08/23/12:22:27.409558,-0.152,0.257,0.107,-0.136,0.234,0.011,2017/08/23/12:22:27.409733,0.06276256,-9.77526872,-0.77668668,0.004886922,0.002094395,-0.006283185,0.0814,0.2959,0.3322,2017/08/23/12:22:27.418562,26.50651174,38.43554204,0.211331,40.59986637018989,10,0.00023811095706072585,0.0003452707693136903,1.074905986586734,1.074905986586734,0.2985849962740928,0.2985849962740928,0.2985849962740928,0.2985849962740928,0.0,-0.35999998239990616,0.006397814475025483,-0.07917295412844036,17.746479645805906
2017/08/23/12:22:27.617827,-0.237,0.204,0.098,-0.157,0.222,0.012,2017/08/23/12:22:27.620984,0.0784532,-9.7281968,-0.72961476,0.00837758,0.000698132,0.007679449,0.0787,0.2942,0.3349,2017/08/23/12:22:27.610657,26.55945744,38.44795585,0.211251,40.81111737018989,10,0.00023858657420050306,0.00034538228395616244,1.1257413557296365,1.1257413557296365,0.3127059321471212,0.3127059321471212,0.3127059321471212,0.3127059321471212,0.0,0.4400000166859605,0.007997268093781856,-0.07437459327217125,13.195392503696077
2017/08/23/12:22:27.817920,-0.192,0.151,0.045,-0.176,0.224,0.009,2017/08/23/12:22:27.816007,0.0,-9.7674234,-0.72961476,0.011519173,0.001396263,0.016406095,0.0792,0.2954,0.3336,2017/08/23/12:22:27.814406,26.612587,38.4551573,0.195023,41.00614037018989,10,0.00023906384297520662,0.0003454469753862738,0.8793511244093567,0.8793511244093567,0.24426420122482131,0.24426420122482131,0.24426420122482131,0.24426420122482131,0.0,0.9400000017906823,0.0,-0.07437459327217125,7.719116852929029
2017/08/23/12:22:28.068443,-0.129,0.17,0.082,-0.193,0.209,0.009,2017/08/23/12:22:28.068251,-0.00784532,-9.7281968,-0.69038816,0.015358897,-0.002094395,0.02687807,0.081,0.2968,0.3311,2017/08/23/12:22:28.050498,26.68027356,38.46234571,0.252244,41.25838437018989,10,0.0002396718789076536,0.000345511549676608,0.7682521461082944,0.7682521461082944,0.21340337391897066,0.21340337391897066,0.21340337391897066,0.21340337391897066,0.0,1.5399999724571927,-0.0007997268093781854,-0.07037595922528032,6.062171089374253
2017/08/23/12:22:28.281180,-0.27,0.16,0.101,-0.229,0.198,-0.004,2017/08/23/12:22:28.279369,-0.10983448,-9.78311404,-0.67469752,0.01850049,-0.002443461,0.020245819,0.0847,0.2991,0.3276,2017/08/23/12:22:28.294488,26.74762583,38.46449425,0.211118,41.469502370189886,10,0.00024027691187567373,0.00034553085025152715,1.1298495475062156,1.1298495475062156,0.3138470965295043,0.3138470965295043,0.3138470965295043,0.3138470965295043,0.0,1.1599999814857729,-0.011196175331294597,-0.06877650560652396,1.8271179692919826
2017/08/23/12:22:28.488189,-0.219,0.293,0.04,-0.235,0.186,-0.002,2017/08/23/12:22:28.490738,-0.05491724,-9.79880468,-0.68254284,0.019198622,-0.001745329,-0.003839724,0.0851,0.2998,0.3254,2017/08/23/12:22:28.486486,26.80632363,38.45692486,0.211369,41.680871370189884,10,0.00024080420077254763,0.0003454628535752785,1.3168817714586227,1.3168817714586227,0.3658004920718396,0.3658004920718396,0.3658004920718396,0.3658004920718396,0.0,-0.21999997969509053,-0.005598087665647298,-0.06957623241590213,352.65196015631597
2017/08/23/12:22:28.701312,-0.249,0.099,0.063,-0.261,0.196,-0.007,2017/08/23/12:22:28.701975,-0.05491724,-9.82234064,-0.61978028,0.023387412,-0.002792527,-0.021991149,0.0865,0.303,0.3241,2017/08/23/12:22:28.694537,26.86308179,38.44632468,0.211237,41.89210837018988,10,0.0002413140656665469,0.0003453676309737693,0.9646522274892647,0.9646522274892647,0.2679589520803513,0.2679589520803513,0.2679589520803513,0.2679589520803513,0.0,-1.260000024343341,-0.005598087665647298,-0.06317841794087665,349.4212837234886
2017/08/23/12:22:28.907939,-0.29,0.139,0.029,-0.262,0.193,-0.014,2017/08/23/12:22:28.905689,0.00784532,-9.78311404,-0.59624432,0.028274334,-0.002792527,-0.029321531,0.0857,0.3048,0.3211,2017/08/23/12:22:28.926503,26.93771502,38.43386245,0.203714,42.09582237018988,10,0.00024198450431189364,0.00034525568136902624,1.1577288801787748,1.1577288801787748,0.32159135560521523,0.32159135560521523,0.32159135560521523,0.32159135560521523,0.0,-1.6799999751620083,0.0007997268093781854,-0.0607792375127421,350.5202311853596
2017/08/23/12:22:29.145644,-0.185,0.205,0.006,-0.256,0.188,-0.018,2017/08/23/12:22:29.148706,0.12552512,-9.79095936,-0.52563644,0.03281219,-0.004886922,-0.007679449,0.0865,0.3084,0.3181,2017/08/23/12:22:29.162482,27.01255385,38.42031463,0.243017,42.33883937018988,10,0.00024265678988501618,0.0003451339797879986,0.9940824915468535,0.9940824915468535,0.2761340254296815,0.2761340254296815,0.2761340254296815,0.2761340254296815,0.0,-0.4400000166859605,0.012795628950050967,-0.05358169622833842,349.7390618161472
2017/08/23/12:22:29.360648,-0.194,0.166,0.013,-0.261,0.183,-0.024,2017/08/23/12:22:29.360213,0.1176798,-9.79095936,-0.4707192,0.038397244,-0.002792527,0.009075712,0.0858,0.3105,0.3162,2017/08/23/12:22:29.366466,27.07132445,38.40671721,0.211507,42.55034637018988,10,0.00024318473275242544,0.00034501183264462804,0.9191780676234612,0.9191780676234612,0.255327241006517,0.255327241006517,0.255327241006517,0.255327241006517,0.0,0.5199999936762354,0.011995902140672782,-0.04798360856269113,346.9730152027122
2017/08/23/12:22:29.566351,-0.217,0.147,-0.017,-0.257,0.179,-0.026,2017/08/23/12:22:29.563152,0.08629852,-9.8458766,-0.37657536,0.038397244,-0.005235988,0.038048178,0.0825,0.3108,0.3165,2017/08/23/12:22:29.562431,27.13007619,38.39209358,0.202939,42.75328537018988,10,0.00024371250619834711,0.0003448804669421488,0.9435709194331923,0.9435709194331923,0.26210303317588673,0.26210303317588673,0.26210303317588673,0.26210303317588673,0.0,2.18000001756251,0.00879699490316004,-0.03838688685015291,346.0227942293032
2017/08/23/12:22:29.769137,-0.195,0.151,-0.057,-0.255,0.172,-0.019,2017/08/23/12:22:29.766477,0.04707192,-9.85372192,-0.29812216,0.039444441,-0.002443461,0.042586034,0.0866,0.313,0.3156,2017/08/23/12:22:29.766515,27.18735737,38.37839537,0.203325,42.95661037018988,10,0.0002442270694394538,0.000344757414390945,0.8878653952035748,0.8878653952035748,0.24662927644543745,0.24662927644543745,0.24662927644543745,0.24662927644543745,0.0,2.4400000144006273,0.0047983608562691136,-0.03038961875637105,346.5508773189213
2017/08/23/12:22:29.980979,-0.055,0.162,-0.05,-0.244,0.173,-0.011,2017/08/23/12:22:29.977703,-0.0784532,-9.87725788,-0.24320492,0.036302848,-0.004537856,0.03281219,0.0889,0.3149,0.3119,2017/08/23/12:22:29.962528,27.24335122,38.3645459,0.211226,43.16783637018988,10,0.00024473006845131154,0.000344633003054258,0.6158946663188439,0.6158946663188439,0.1710818517552344,0.1710818517552344,0.1710818517552344,0.1710818517552344,0.0,1.8800000035813647,-0.007997268093781856,-0.02479153109072375,346.1073348476697
2017/08/23/12:22:30.187822,-0.123,0.103,-0.031,-0.227,0.168,0.003,2017/08/23/12:22:30.188978,-0.12552512,-9.83018596,-0.14906108,0.03281219,-0.003839724,0.010821041,0.0922,0.3193,0.3091,2017/08/23/12:22:30.194449,27.3122367,38.35174464,0.211275,43.37911137018988,10,0.00024534887441609774,0.00034451800790513833,0.5775504133839746,0.5775504133839746,0.1604306703844374,0.1604306703844374,0.1604306703844374,0.1604306703844374,0.0,0.6199999792380239,-0.012795628950050967,-0.015194809378185525,349.47258883724675
2017/08/23/12:22:30.437995,-0.119,0.084,-0.035,-0.191,0.181,0.014,2017/08/23/12:22:30.440982,-0.08629852,-9.79880468,-0.09414384,0.025830873,-0.001396263,-0.011519173,0.0911,0.3205,0.3067,2017/08/23/12:22:30.430478,27.37926382,38.3402054,0.252004,43.63111537018988,10,0.0002459509865253324,0.00034441434962270934,0.5243780315764572,0.5243780315764572,0.14566056432679367,0.14566056432679367,0.14566056432679367,0.14566056432679367,0.0,-0.6599999963810511,-0.00879699490316004,-0.009596721712538227,350.23183874279664
2017/08/23/12:22:30.652835,-0.135,0.207,-0.006,-0.199,0.174,0.032,2017/08/23/12:22:30.652368,-0.01569064,-9.80665,-0.03138128,0.016755161,-0.000698132,-0.012566371,0.0892,0.3214,0.3043,2017/08/23/12:22:30.634459,27.42898453,38.33686919,0.211386,43.84250137018988,10,0.00024639763321954725,0.00034438438007545813,0.8896735581099395,0.8896735581099395,0.24713154391942765,0.24713154391942765,0.24713154391942765,0.24713154391942765,0.0,-0.7200000220955918,-0.0015994536187563708,-0.0031989072375127416,356.16126451371724
2017/08/23/12:22:30.858367,0.01,0.153,-0.004,-0.173,0.176,0.043,2017/08/23/12:22:30.856056,-0.01569064,-9.82234064,0.0,0.011519173,-0.001745329,-0.004537856,0.0872,0.3215,0.3055,2017/08/23/12:22:30.838584,27.48013273,38.33106889,0.203688,44.04618937018988,10,0.000246857103215954,0.0003443322753323751,0.551975216834959,0.551975216834959,0.15332644912082194,0.15332644912082194,0.15332644912082194,0.15332644912082194,0.0,-0.2599999968381177,-0.0015994536187563708,0.0,353.53019255673587
2017/08/23/12:22:31.071284,-0.088,0.083,0.006,-0.139,0.166,0.052,2017/08/23/12:22:31.074821,-0.02353596,-9.80665,0.03138128,0.002094395,-0.000698132,0.000698132,0.0869,0.3219,0.3051,2017/08/23/12:22:31.074443,27.54159404,38.32921634,0.218765,44.264954370189876,10,0.0002474092170319799,0.00034431563366870284,0.435480975474245,0.435480975474245,0.12096693763173473,0.12096693763173473,0.12096693763173473,0.12096693763173473,0.0,0.040000017143027186,-0.0023991804281345568,0.0031989072375127416,358.2735290008995
2017/08/23/12:22:31.279493,-0.134,0.019,0.017,-0.13,0.188,0.072,2017/08/23/12:22:31.278133,-0.01569064,-9.77526872,0.01569064,-0.009075712,-0.001745329,0.007330383,0.0888,0.3224,0.3042,2017/08/23/12:22:31.266569,27.58423219,38.33184959,0.203312,44.46826637018987,10,0.0002477922402982393,0.0003443392884477183,0.48722512250498745,0.48722512250498745,0.13534031180694095,0.13534031180694095,0.13534031180694095,0.13534031180694095,0.0,0.42000000811444693,-0.0015994536187563708,0.0015994536187563708,3.533988573112886
2017/08/23/12:22:31.516924,-0.125,0.191,0.011,-0.099,0.195,0.081,2017/08/23/12:22:31.513737,-0.00784532,-9.74388744,0.01569064,-0.016755161,-0.002094395,0.010821041,0.0905,0.3219,0.3044,2017/08/23/12:22:31.510625,27.64224775,38.33896414,0.235604,44.703870370189875,10,0.0002483134005569529,0.00034440319924541863,0.8217625934538515,0.8217625934538515,0.2282673870705143,0.2282673870705143,0.2282673870705143,0.2282673870705143,0.0,0.6199999792380239,-0.0007997268093781854,0.0015994536187563708,6.991374798034201
2017/08/23/12:22:31.736164,-0.133,0.088,0.048,-0.084,0.198,0.082,2017/08/23/12:22:31.733593,-0.07060788,-9.74388744,0.0,-0.02268928,-0.006632251,0.001396263,0.0896,0.3202,0.308,2017/08/23/12:22:31.754462,27.6962146,38.35229914,0.219856,44.923726370189875,10,0.0002487981908012936,0.00034452298904060364,0.5741181759881846,0.5741181759881846,0.15947727110782906,0.15947727110782906,0.15947727110782906,0.15947727110782906,0.0,0.07999997699027486,-0.007197541284403669,0.0,13.87954454225566
2017/08/23/12:22:31.937119,-0.013,0.078,0.044,-0.083,0.192,0.07,2017/08/23/12:22:31.936169,-0.08629852,-9.7674234,-0.0392266,-0.028972466,-0.004886922,-0.012915436,0.0901,0.3195,0.3094,2017/08/23/12:22:31.950438,27.73690813,38.36845875,0.202576,45.126302370189876,10,0.0002491637453287819,0.00034466815262306866,0.2846732864179567,0.2846732864179567,0.07907591289387686,0.07907591289387686,0.07907591289387686,0.07907591289387686,0.0,-0.739999973371326,-0.00879699490316004,-0.003998634046890928,21.658281427984928
2017/08/23/12:22:32.149783,-0.047,0.187,0.022,-0.077,0.217,0.061,2017/08/23/12:22:32.147799,-0.03138128,-9.73604212,-0.0784532,-0.036302848,-0.004886922,-0.023387412,0.0883,0.3166,0.3123,2017/08/23/12:22:32.146512,27.7772127,38.38318864,0.21163,45.337932370189876,10,0.00024952580578512396,0.00034480047287100253,0.694137507991032,0.694137507991032,0.19281597444195334,0.19281597444195334,0.19281597444195334,0.19281597444195334,0.0,-1.3400000013336157,-0.0031989072375127416,-0.007997268093781856,20.07556431882362
2017/08/23/12:22:32.358433,-0.141,0.141,0.032,-0.1,0.226,0.056,2017/08/23/12:22:32.359320,-0.02353596,-9.7281968,-0.13337044,-0.039444441,-0.005235988,-0.020943951,0.0867,0.3138,0.3147,2017/08/23/12:22:32.350535,27.82046191,38.40227892,0.211521,45.54945337018987,10,0.0002499143182716493,0.0003449719629895796,0.717854804260583,0.717854804260583,0.1994041122946064,0.1994041122946064,0.1994041122946064,0.1994041122946064,0.0,-1.1999999986288,-0.0023991804281345568,-0.013595355759429153,23.816750557829952
2017/08/23/12:22:32.570634,-0.074,-0.004,0.078,-0.105,0.237,0.046,2017/08/23/12:22:32.570118,-0.01569064,-9.70466084,-0.196133,-0.042586034,-0.006632251,-0.00837758,0.0869,0.3122,0.3165,2017/08/23/12:22:32.586471,27.8790445,38.41947512,0.210798,45.76025137018987,10,0.00025044057222421847,0.00034512643837585343,0.2667889053165442,0.2667889053165442,0.07410802925459561,0.07410802925459561,0.07410802925459561,0.07410802925459561,0.0,-0.47999997653320825,-0.0015994536187563708,-0.019993170234454637,16.35895374359674
2017/08/23/12:22:32.814889,-0.102,0.082,0.072,-0.108,0.245,0.02,2017/08/23/12:22:32.813855,-0.02353596,-9.71250616,-0.29812216,-0.041538836,-0.00837758,0.010471976,0.0877,0.3098,0.3199,2017/08/23/12:22:32.818428,27.94045618,38.43807474,0.243737,46.00398837018987,10,0.0002509922402084082,0.00034529352084081925,0.4711463466907071,0.4711463466907071,0.13087398519186308,0.13087398519186308,0.13087398519186308,0.13087398519186308,0.0,0.6000000279622897,-0.0023991804281345568,-0.03038961875637105,16.849870362931462
2017/08/23/12:22:33.023047,-0.187,0.167,0.079,-0.126,0.256,0.005,2017/08/23/12:22:33.025692,-0.08629852,-9.7281968,-0.36873004,-0.042236968,-0.006283185,0.002792527,0.0891,0.3071,0.3224,2017/08/23/12:22:33.022479,27.99143208,38.45659013,0.211837,46.215825370189876,10,0.00025145016241466046,0.00034545984665828244,0.9025739194104825,0.9025739194104825,0.2507149776140229,0.2507149776140229,0.2507149776140229,0.2507149776140229,0.0,0.16000001127632923,-0.00879699490316004,-0.03758716004077472,19.96195805253934
2017/08/23/12:22:33.230473,-0.141,0.123,0.057,-0.148,0.267,-0.005,2017/08/23/12:22:33.228438,-0.09414384,-9.72035148,-0.44718324,-0.044680429,-0.003490659,-0.015707963,0.0874,0.3037,0.3252,2017/08/23/12:22:33.226573,28.04601974,38.47364012,0.202746,46.41857137018987,10,0.0002519405294646065,0.00034561300862378727,0.6735945367949476,0.6735945367949476,0.1871095935541521,0.1871095935541521,0.1871095935541521,0.1871095935541521,0.0,-0.8999999846476551,-0.009596721712538227,-0.04558442813455657,17.345749298225652
2017/08/23/12:22:33.437300,-0.179,0.216,0.074,-0.181,0.272,-0.006,2017/08/23/12:22:33.439638,-0.00784532,-9.71250616,-0.5491724,-0.040840704,-0.002792527,-0.021293017,0.0857,0.3,0.3277,2017/08/23/12:22:33.422603,28.10448907,38.48853079,0.2112,46.62977137018987,10,0.0002524657659899389,0.0003457467731764283,1.0099074809109991,1.0099074809109991,0.28052985580861084,0.28052985580861084,0.28052985580861084,0.28052985580861084,0.0,-1.2200000072003137,-0.0007997268093781854,-0.055980876656472986,14.288060179464798
2017/08/23/12:22:33.651018,-0.255,0.246,0.01,-0.2,0.265,-0.016,2017/08/23/12:22:33.650996,0.00784532,-9.73604212,-0.65900688,-0.036302848,-0.003490659,-0.010471976,0.0869,0.2996,0.3283,2017/08/23/12:22:33.658441,28.18037632,38.50035214,0.211358,46.84112937018987,10,0.00025314746963708227,0.0003458529656845131,1.2755435547248084,1.2755435547248084,0.35431765409022453,0.35431765409022453,0.35431765409022453,0.35431765409022453,0.0,-0.6000000279622897,0.0007997268093781854,-0.06717705198776758,8.854100385881893
2017/08/23/12:22:33.882496,-0.346,0.106,0.067,-0.229,0.26,-0.028,2017/08/23/12:22:33.878478,-0.05491724,-9.79880468,-0.7453054,-0.03700098,-0.003490659,0.001396263,0.0865,0.2957,0.3338,2017/08/23/12:22:33.894478,28.2588532,38.50842052,0.227482,47.06861137018987,10,0.0002538524362199066,0.00034592544484369386,1.302742461118083,1.302742461118083,0.36187290586613413,0.36187290586613413,0.36187290586613413,0.36187290586613413,0.0,0.07999997699027486,-0.005598087665647298,-0.07597404689092763,5.870079698339852
2017/08/23/12:22:34.103195,-0.334,0.25,0.053,-0.245,0.266,-0.016,2017/08/23/12:22:34.106029,-0.02353596,-9.77526872,-0.8629852,-0.03281219,0.0,0.006283185,0.0875,0.2944,0.3341,2017/08/23/12:22:34.094484,28.32683858,38.50971461,0.227551,47.29616237018987,10,0.0002544631564858067,0.00034593706979877835,1.5019206903162365,1.5019206903162365,0.4172001917545101,0.4172001917545101,0.4172001917545101,0.4172001917545101,0.0,0.35999998239990616,-0.0023991804281345568,-0.08796994903160041,1.0904836053594038
2017/08/23/12:22:34.312392,-0.161,0.228,0.063,-0.263,0.247,-0.006,2017/08/23/12:22:34.309581,-0.07060788,-9.74388744,-0.94928372,-0.031764992,-0.002094395,0.023387412,0.0879,0.2919,0.3353,2017/08/23/12:22:34.298540,28.39728683,38.50931937,0.203552,47.49971437018987,10,0.0002550960009881423,0.0003459335193136903,1.0048128183895746,1.0048128183895746,0.2791146717748818,0.2791146717748818,0.2791146717748818,0.2791146717748818,0.0,1.3400000013336157,-0.007197541284403669,-0.09676694393476044,359.678553458731
2017/08/23/12:22:34.518801,-0.298,0.197,0.07,-0.272,0.25,0.011,2017/08/23/12:22:34.520582,-0.13337044,-9.74388744,-1.02773692,-0.027227136,-0.003839724,0.024783675,0.0938,0.2915,0.3344,2017/08/23/12:22:34.534457,28.48151684,38.50510783,0.211001,47.710715370189874,10,0.00025585264858066833,0.00034589568657923106,1.2860266249187846,1.2860266249187846,0.3572296180329957,0.3572296180329957,0.3572296180329957,0.3572296180329957,0.0,1.4199999783238906,-0.013595355759429153,-0.10476421202854229,357.13756797180923
2017/08/23/12:22:34.731946,-0.258,0.05,0.024,-0.267,0.216,0.011,2017/08/23/12:22:34.731833,-0.13337044,-9.79095936,-1.0983448,-0.020594885,-0.003141593,0.004886922,0.0931,0.2898,0.3352,2017/08/23/12:22:34.730500,28.55403675,38.49851259,0.211251,47.92196637018987,10,0.0002565041030362918,0.00034583644080129355,0.9460810958897763,0.9460810958897763,0.26280030441382674,0.26280030441382674,0.26280030441382674,0.26280030441382674,0.0,0.2800000054096313,-0.013595355759429153,-0.11196175331294597,354.80359573006433
2017/08/23/12:22:34.939336,-0.281,0.116,0.027,-0.273,0.212,0.022,2017/08/23/12:22:34.943218,-0.12552512,-9.74388744,-1.16895268,-0.017802358,-0.00418879,-0.015707963,0.0947,0.2889,0.336,2017/08/23/12:22:34.934483,28.61909125,38.48740134,0.211385,48.13335137018987,10,0.0002570884948796263,0.00034573662720086234,1.0944059210366144,1.0944059210366144,0.3040016447323929,0.3040016447323929,0.3040016447323929,0.3040016447323929,0.0,-0.8999999846476551,-0.012795628950050967,-0.11915929459734964,350.30746157564823
2017/08/23/12:22:35.184367,-0.266,0.063,0.012,-0.27,0.179,0.033,2017/08/23/12:22:35.187027,-0.00784532,-9.7281968,-1.176798,-0.00837758,-0.004537856,-0.020594885,0.096,0.2901,0.3347,2017/08/23/12:22:35.166459,28.70063922,38.47504572,0.243809,48.37716037018987,10,0.0002578210494071146,0.00034562563528566295,0.9840914591642386,0.9840914591642386,0.27335873865673294,0.27335873865673294,0.27335873865673294,0.27335873865673294,0.0,-1.1799999900572864,-0.0007997268093781854,-0.11995902140672782,351.3844431856725
2017/08/23/12:22:35.391083,-0.265,0.028,0.017,-0.249,0.171,0.026,2017/08/23/12:22:35.389955,0.06276256,-9.71250616,-1.20033396,-0.003839724,-0.00418879,-0.019547688,0.0968,0.2899,0.3392,2017/08/23/12:22:35.374493,28.7605805,38.45723944,0.202928,48.58008837018987,10,0.0002583595086237873,0.0003454656794825728,0.9593105023922132,0.9593105023922132,0.2664751395533925,0.2664751395533925,0.2664751395533925,0.2664751395533925,0.0,-1.1200000216385253,0.006397814475025483,-0.12235820183486239,343.4553130953919
2017/08/23/12:22:35.598594,-0.232,0.113,0.0,-0.234,0.161,0.031,2017/08/23/12:22:35.601406,0.06276256,-9.7281968,-1.18464332,0.004537856,-0.005235988,-0.008028515,0.0942,0.2903,0.3378,2017/08/23/12:22:35.606573,28.83120707,38.44169503,0.211451,48.79153937018987,10,0.00025899395499461014,0.0003453260423104563,0.9290023035493509,0.9290023035493509,0.2580561954303752,0.2580561954303752,0.2580561954303752,0.2580561954303752,0.0,-0.46000002525747413,0.006397814475025483,-0.12075874821610601,347.5875018984786
2017/08/23/12:22:35.812741,-0.247,0.072,0.009,-0.22,0.139,0.032,2017/08/23/12:22:35.812664,0.03138128,-9.70466084,-1.176798,0.011170107,-0.008726646,0.030019663,0.0925,0.2903,0.3369,2017/08/23/12:22:35.802474,28.88406372,38.42732483,0.211258,49.00279737018987,10,0.00025946877218828603,0.0003451969531979878,0.9262080111940297,0.9262080111940297,0.2572800031094527,0.2572800031094527,0.2572800031094527,0.2572800031094527,0.0,1.7199999923050353,0.0031989072375127416,-0.11995902140672782,344.7905457117434
2017/08/23/12:22:36.021303,-0.097,0.068,-0.022,-0.195,0.128,0.034,2017/08/23/12:22:36.023954,0.07060788,-9.74388744,-1.1375714,0.016057029,-0.006981317,0.045029495,0.0936,0.2895,0.3371,2017/08/23/12:22:36.006471,28.93112049,38.41271257,0.21129,49.214087370189866,10,0.00025989148841178584,0.000345065689633489,0.42645947052445676,0.42645947052445676,0.11846096403457132,0.11846096403457132,0.11846096403457132,0.11846096403457132,0.0,2.580000017105443,0.007197541284403669,-0.11596038735983688,342.74917318600666
2017/08/23/12:22:36.252953,-0.18,0.041,-0.046,-0.179,0.129,0.04,2017/08/23/12:22:36.251515,-0.09414384,-9.75173276,-1.0591182,0.017453293,-0.005585054,0.038397244,0.0965,0.29,0.3365,2017/08/23/12:22:36.242638,28.98706423,38.40006528,0.227561,49.44164837018987,10,0.00026039403727991375,0.0003449520776140855,0.6645974420654959,0.6645974420654959,0.18461040057374883,0.18461040057374883,0.18461040057374883,0.18461040057374883,0.0,2.200000026134023,-0.009596721712538227,-0.10796311926605504,347.2611910777228
2017/08/23/12:22:36.473845,-0.018,0.032,-0.007,-0.169,0.128,0.047,2017/08/23/12:22:36.470969,-0.10198916,-9.77526872,-0.97281968,0.018151424,-0.003839724,0.006632251,0.096,0.2896,0.339,2017/08/23/12:22:36.486517,29.04057996,38.39014714,0.219454,49.661102370189866,10,0.0002608747750628818,0.0003448629818541143,0.13217443020493788,0.13217443020493788,0.036715119501371636,0.036715119501371636,0.036715119501371636,0.036715119501371636,0.0,0.37999999097141973,-0.01039644852191641,-0.099166124362895,349.50042882031335
2017/08/23/12:22:36.681064,-0.14,0.174,0.019,-0.138,0.145,0.057,2017/08/23/12:22:36.682128,-0.08629852,-9.80665,-0.91005712,0.017802358,0.0,-0.015358897,0.0955,0.2903,0.3373,2017/08/23/12:22:36.682446,29.08020212,38.38187529,0.211159,49.87226137018987,10,0.0002612307053539346,0.0003447886749011858,0.8039856715141135,0.8039856715141135,0.22332935319836486,0.22332935319836486,0.22332935319836486,0.22332935319836486,0.0,-0.8799999760761416,-0.00879699490316004,-0.09276830988786952,348.2078294335751
2017/08/23/12:22:36.889587,-0.137,0.148,0.053,-0.124,0.154,0.061,2017/08/23/12:22:36.885516,-0.06276256,-9.77526872,-0.87083052,0.016755161,-0.003839724,-0.018151424,0.095,0.2917,0.3364,2017/08/23/12:22:36.882589,29.11979066,38.38110442,0.203388,50.075649370189865,10,0.0002615863336327704,0.0003447817500898311,0.7260317348435948,0.7260317348435948,0.20167548190099857,0.20167548190099857,0.20167548190099857,0.20167548190099857,0.0,-1.0399999873524708,-0.006397814475025483,-0.0887696758409786,358.884474733918
2017/08/23/12:22:37.102530,-0.125,0.174,0.039,-0.115,0.174,0.064,2017/08/23/12:22:37.104798,-0.10983448,-9.75173276,-0.81591328,0.015358897,-0.003839724,-0.006632251,0.0936,0.2931,0.3351,2017/08/23/12:22:37.118458,29.16998511,38.38273081,0.219282,50.294931370189865,10,0.00026203723598634566,0.00034479636013295,0.7712826719173717,0.7712826719173717,0.21424518664371434,0.21424518664371434,0.21424518664371434,0.21424518664371434,0.0,-0.37999999097141973,-0.011196175331294597,-0.08317158817533128,1.8558364993189276
2017/08/23/12:22:37.310034,-0.009,0.16,0.027,-0.101,0.197,0.056,2017/08/23/12:22:37.307950,-0.08629852,-9.72035148,-0.784532,0.013613568,-0.004886922,0.00418879,0.0962,0.2952,0.3341,2017/08/23/12:22:37.314490,29.21148516,38.38959905,0.203152,50.49808337018987,10,0.0002624100355731225,0.00034485805830039524,0.5769105303251103,0.5769105303251103,0.16025292509030842,0.16025292509030842,0.16025292509030842,0.16025292509030842,0.0,0.23999998826660413,-0.00879699490316004,-0.07997268093781855,9.397246918490081
2017/08/23/12:22:37.555146,-0.133,0.137,0.038,-0.095,0.21,0.04,2017/08/23/12:22:37.552409,-0.03138128,-9.6497436,-0.72176944,0.011170107,-0.004537856,0.01012291,0.0952,0.296,0.3313,2017/08/23/12:22:37.550569,29.26628504,38.40207424,0.244459,50.74254237018987,10,0.0002629023090190442,0.0003449701243262666,0.6873832118985741,0.6873832118985741,0.19093978108293724,0.19093978108293724,0.19093978108293724,0.19093978108293724,0.0,0.5800000193907762,-0.0031989072375127416,-0.07357486646279306,12.824816161475166
2017/08/23/12:22:37.762100,-0.018,0.262,0.053,-0.093,0.232,0.02,2017/08/23/12:22:37.763089,-0.05491724,-9.6889702,-0.68254284,0.007679449,-0.00418879,0.003490659,0.096,0.2955,0.3336,2017/08/23/12:22:37.762448,29.30982348,38.41797572,0.21068,50.95322237018987,10,0.0002632934196909809,0.00034511296909809557,0.945423333750548,0.945423333750548,0.26261759270848556,0.26261759270848556,0.26261759270848556,0.26261759270848556,0.0,0.20000002841935643,-0.005598087665647298,-0.06957623241590213,20.063635246365976
2017/08/23/12:22:37.970652,0.024,0.269,-0.013,-0.092,0.264,0.013,2017/08/23/12:22:37.974240,-0.10983448,-9.67327956,-0.67469752,0.003490659,-0.002443461,-0.005585054,0.0958,0.2967,0.3323,2017/08/23/12:22:37.958543,29.35626485,38.43713538,0.211151,51.16437337018987,10,0.00026371060770750986,0.00034528508246496587,0.9722466353760243,0.9722466353760243,0.2700685098266734,0.2700685098266734,0.2700685098266734,0.2700685098266734,0.0,-0.32000002255265847,-0.011196175331294597,-0.06877650560652396,22.418883262305737
2017/08/23/12:22:38.176864,-0.063,0.195,0.009,-0.096,0.275,-0.001,2017/08/23/12:22:38.177541,-0.14121576,-9.75957808,-0.6668522,-0.002094395,-0.000349066,-0.01850049,0.0983,0.2982,0.3302,2017/08/23/12:22:38.190426,29.41825369,38.46178614,0.203301,51.367674370189874,10,0.0002642674603844772,0.0003455065229967661,0.7377277546629244,0.7377277546629244,0.20492437629525678,0.20492437629525678,0.20492437629525678,0.20492437629525678,0.0,-1.0599999959239845,-0.014395082568807338,-0.06797677879714577,21.68595866694817
2017/08/23/12:22:38.391088,-0.091,0.19,0.023,-0.108,0.272,-0.003,2017/08/23/12:22:38.389095,-0.10198916,-9.610517,-0.67469752,-0.00418879,0.002094395,-0.019547688,0.0949,0.2978,0.3275,2017/08/23/12:22:38.386579,29.47150588,38.48653333,0.211554,51.579228370189874,10,0.00026474583075817464,0.00034572882977003237,0.7584047468205879,0.7584047468205879,0.21066798522794108,0.21066798522794108,0.21066798522794108,0.21066798522794108,0.0,-1.1200000216385253,-0.01039644852191641,-0.06877650560652396,24.925087156805294
2017/08/23/12:22:38.622719,-0.115,0.109,0.036,-0.118,0.287,-0.007,2017/08/23/12:22:38.624918,-0.18044236,-9.74388744,-0.7060788,-0.001047198,0.005235988,-0.043284165,0.0967,0.2995,0.3257,2017/08/23/12:22:38.630415,29.53707619,38.50998391,0.235823,51.81505137018988,10,0.00026533485618038087,0.0003459394889507726,0.570415427561352,0.570415427561352,0.15844872987815334,0.15844872987815334,0.15844872987815334,0.15844872987815334,0.0,-2.479999974247875,-0.018393716615698264,-0.07197541284403669,19.67909317642224
2017/08/23/12:22:38.842997,-0.089,0.159,0.069,-0.137,0.294,-0.015,2017/08/23/12:22:38.843980,-0.03138128,-9.71250616,-0.69038816,0.002094395,0.009075712,-0.049218285,0.0909,0.2994,0.328,2017/08/23/12:22:38.826547,29.59501696,38.5324981,0.219062,52.03411337018988,10,0.0002658553445921667,0.00034614173643550124,0.655970974967643,0.655970974967643,0.18221415971323415,0.18221415971323415,0.18221415971323415,0.18221415971323415,0.0,-2.820000005372047,-0.0031989072375127416,-0.07037595922528032,21.234757597744842
2017/08/23/12:22:39.051627,-0.119,0.113,0.027,-0.152,0.285,-0.026,2017/08/23/12:22:39.055195,0.06276256,-9.75957808,-0.69038816,0.005585054,0.008028515,-0.031764992,0.0844,0.2981,0.3318,2017/08/23/12:22:39.070564,29.66793258,38.55483146,0.211215,52.24532837018988,10,0.00026651035375494067,0.00034634235950413227,0.5907730528722515,0.5907730528722515,0.16410362579784762,0.16410362579784762,0.16410362579784762,0.16410362579784762,0.0,-1.8199999778668239,0.006397814475025483,-0.07037595922528032,17.029327589364506
2017/08/23/12:22:39.258254,-0.063,0.209,0.014,-0.179,0.258,-0.046,2017/08/23/12:22:39.258309,0.05491724,-9.79880468,-0.69038816,0.008726646,0.008028515,0.003839724,0.0837,0.2989,0.3306,2017/08/23/12:22:39.266448,29.72840194,38.57178696,0.203114,52.44844237018988,10,0.0002670535567732663,0.0003464946726554078,0.7858396783059506,0.7858396783059506,0.21828879952943073,0.21828879952943073,0.21828879952943073,0.21828879952943073,0.0,0.21999997969509053,0.005598087665647298,-0.07037595922528032,15.663401042462056
2017/08/23/12:22:39.474779,-0.203,0.287,0.029,-0.217,0.247,-0.047,2017/08/23/12:22:39.478097,0.01569064,-9.8458766,-0.67469752,0.010471976,0.006283185,0.054454273,0.0824,0.2982,0.3319,2017/08/23/12:22:39.458599,29.78762461,38.58139679,0.219788,52.66823037018988,10,0.00026758556063600434,0.0003465809988321955,1.2655318565725637,1.2655318565725637,0.35153662682571213,0.35153662682571213,0.35153662682571213,0.35153662682571213,0.0,3.1200000193531916,0.0015994536187563708,-0.06877650560652396,9.216827460792407
2017/08/23/12:22:39.679553,-0.203,0.205,0.044,-0.238,0.226,-0.039,2017/08/23/12:22:39.680974,-0.09414384,-9.86941256,-0.65900688,0.011170107,0.00418879,0.071209433,0.0865,0.2986,0.3301,2017/08/23/12:22:39.662760,29.8497998,38.58423125,0.202877,52.87110737018988,10,0.00026814408731584623,0.0003466064611031261,1.0386109184868029,1.0386109184868029,0.2885030329130008,0.2885030329130008,0.2885030329130008,0.2885030329130008,0.0,4.079999972419609,-0.009596721712538227,-0.06717705198776758,2.610208809162734
2017/08/23/12:22:39.924251,-0.26,0.168,0.026,-0.274,0.199,-0.02,2017/08/23/12:22:39.924679,-0.2745862,-9.86156724,-0.63547092,0.013264502,0.005235988,0.028274334,0.0903,0.2988,0.3301,2017/08/23/12:22:39.938563,29.93935476,38.58524914,0.243705,53.11481237018988,10,0.0002689485695292849,0.00034661560492274524,1.1143962670432812,1.1143962670432812,0.30955451862313366,0.30955451862313366,0.30955451862313366,0.30955451862313366,0.0,1.620000006743247,-0.027990438328236493,-0.06477787155963304,0.6512011144068854
2017/08/23/12:22:40.131813,-0.268,0.173,0.061,-0.292,0.191,0.011,2017/08/23/12:22:40.127844,-0.21966896,-9.99493768,-0.61193496,0.012915436,0.003839724,-0.019198622,0.0913,0.3026,0.3289,2017/08/23/12:22:40.142478,30.00280289,38.57109116,0.203165,53.31797737018988,10,0.0002695185311713978,0.00034648842220625227,1.1483548580469367,1.1483548580469367,0.3189874605685935,0.3189874605685935,0.3189874605685935,0.3189874605685935,0.0,-1.1000000130670116,-0.022392350662589194,-0.06237869113149847,347.42095051914055
2017/08/23/12:22:40.339134,-0.248,0.013,0.047,-0.301,0.177,0.033,2017/08/23/12:22:40.339106,-0.06276256,-9.85372192,-0.61193496,0.020245819,0.001396263,-0.04712389,0.0903,0.3039,0.3232,2017/08/23/12:22:40.338471,30.06914173,38.55237562,0.211262,53.52923937018988,10,0.0002701144603844772,0.0003463202984189723,0.8940257714406225,0.8940257714406225,0.24834049206683956,0.24834049206683956,0.24834049206683956,0.24834049206683956,0.0,-2.7000000112387452,-0.006397814475025483,-0.06237869113149847,344.2451581242591
2017/08/23/12:22:40.546310,-0.192,0.044,0.031,-0.301,0.169,0.043,2017/08/23/12:22:40.542438,0.16475172,-9.77526872,-0.60408964,0.023387412,-0.001396263,-0.050963614,0.0932,0.3088,0.3168,2017/08/23/12:22:40.542495,30.13411911,38.52932501,0.203332,53.73257137018988,10,0.00027069815945023355,0.00034611323221343874,0.7091177617293195,0.7091177617293195,0.19697715603592209,0.19697715603592209,0.19697715603592209,0.19697715603592209,0.0,-2.919999990933835,0.016794262996941894,-0.06157896432212028,340.46794998566827
